ax,ay,az,gx,gy,gz,left_click,right_click
-0.082,-0.0723,0.9788,-12.6489,-4.7786,-11.6489,0,0,0
-0.1074,-0.0818,0.9873,-6.7023,-5.0382,-8.3817,0,0,0
-0.1089,-0.0427,0.9814,0.0687,-5.6718,-5.8015,0,0,0
-0.1082,0.0186,0.9756,2.542,-7.3817,-7.6183,0,0,0
-0.1157,0.0686,1.0046,-0.0305,-9.9618,-11.0534,0,0,0
-0.104,0.0554,1.0239,-4.9084,-12.1298,-14.4046,0,0,0
-0.0928,0.0051,1.0405,-6.916,-10.6336,-15.8779,0,0,0
-0.1135,-0.0208,1.0464,-3.9084,-9.771,-17.4046,0,0,0
-0.1355,-0.0322,1.0422,-0.2672,-11.0611,-18.1985,0,0,0
-0.1423,-0.021,1.064,1.1908,-12.6794,-18.7252,0,0,0
-0.1213,0.0024,1.1086,-1.0458,-13.2824,-20.1527,0,0,0
-0.0869,-0.0017,1.137,-5.1985,-12.0076,-23.229,0,0,0
-0.051,-0.0112,1.1506,-11.145,-8.2366,-25.9924,0,0,0
-0.0259,-0.0618,1.1575,-14.7023,-3.0916,-26.9237,0,0,0
-0.0225,-0.0952,1.1355,-15.5038,0.5649,-26.5191,0,0,0
-0.0381,-0.1204,1.0859,-13.916,2.0992,-24.2519,0,0,0
-0.0408,-0.1272,1.0737,-10.3435,1.2672,-20.5878,0,0,0
-0.041,-0.104,1.0649,-7.0,0.8702,-18.2061,0,0,0
-0.0347,-0.0579,1.0542,-5.5191,0.1679,-16.0382,0,0,0
-0.0239,-0.0352,1.0518,-6.084,1.0534,-15.2366,0,0,0
-0.0283,-0.042,1.0334,-5.7099,1.8397,-14.9237,0,0,0
-0.041,-0.0632,1.0376,-1.8168,1.8168,-13.3969,0,0,0
-0.0562,-0.0483,1.0186,1.7328,1.2214,-11.5725,0,0,0
-0.0637,-0.0161,1.0259,3.7405,-0.7023,-9.6718,0,0,0
-0.0459,0.0273,1.0234,3.3359,-1.5191,-9.3206,0,0,0
-0.0488,0.0483,0.9985,0.145,-0.0305,-13.145,0,0,0
-0.0657,0.05,0.9768,-5.1221,-2.7176,-17.7557,0,0,0
-0.0745,-0.019,0.9734,-8.9695,-6.0687,-19.0611,0,0,0
-0.0781,-0.0752,0.9897,-7.6412,-10.6565,-17.1145,0,0,0
-0.0657,-0.1099,1.0129,-2.4351,-14.0,-14.0916,0,0,0
-0.0359,-0.1013,1.0435,3.2137,-13.5725,-11.6489,0,0,0
-0.0317,-0.0867,1.0459,6.916,-10.0076,-9.3893,0,0,0
-0.0537,-0.0471,1.0337,7.9084,-7.626,-7.9237,0,0,0
-0.0686,-0.0283,1.0286,7.855,-7.6183,-8.7023,0,0,0
-0.0698,-0.0217,1.0312,7.4046,-9.0992,-9.7176,0,0,0
-0.0596,-0.0273,1.0364,6.6794,-10.8244,-10.8931,0,0,0
-0.0447,-0.0437,1.0583,4.8244,-10.7252,-11.0153,0,0,0
-0.0303,-0.0674,1.0642,3.6183,-8.542,-9.2137,0,0,0
-0.0225,-0.0901,1.0547,6.1221,-5.8473,-6.4656,0,0,0
-0.0181,-0.0688,1.0344,9.8855,-4.1603,-3.9924,0,0,0
-0.0352,-0.0518,1.0083,14.0,-4.1145,-2.8321,0,0,0
-0.0408,-0.0234,1.0093,16.626,-5.1985,-1.7863,0,0,0
-0.0439,-0.0042,1.0166,17.0687,-6.3511,-2.1527,0,0,0
-0.0347,-0.0015,1.0203,16.8473,-7.0763,-2.2824,0,0,0
-0.0203,-0.0051,1.0112,15.3893,-6.4733,-2.2595,0,0,0
-0.022,0.0146,0.9805,13.0382,-6.1374,-2.855,0,0,0
-0.0425,0.0146,0.9778,10.4962,-7.8168,-3.4885,0,0,0
-0.0476,0.0103,0.9832,9.3969,-10.5344,-4.4122,0,0,0
-0.0789,-0.0261,0.989,7.626,-13.8015,-5.6107,0,0,0
-0.0203,-0.0056,1.0227,7.7405,-14.4962,-5.5573,0,0,0
0.0203,-0.0193,1.0332,8.374,-13.9084,-5.8168,0,0,0
0.0498,-0.0205,1.0574,7.7634,-9.7481,-6.2443,0,0,0
0.0457,-0.009,1.0649,6.687,-5.0305,-5.916,0,0,0
0.0293,-0.0203,1.0686,5.5878,-1.4962,-5.7023,0,0,0
0.0183,-0.0317,1.0564,5.8397,0.1908,-5.374,0,0,0
0.0186,-0.0383,1.0535,6.8397,1.4275,-3.4733,0,0,0
0.0486,-0.0337,1.0591,7.145,2.2137,-1.5267,0,0,0
0.0684,-0.0376,1.0334,7.1221,5.2519,0.1756,0,0,0
0.0449,-0.0488,1.0259,7.1679,7.6718,1.2519,0,0,0
0.0203,-0.0798,1.0381,9.7481,8.3282,5.8015,0,0,0
0.0056,-0.063,1.0405,14.4427,8.4427,9.8168,0,0,0
0.0325,-0.0198,1.0764,17.5114,9.5954,14.5496,0,0,0
0.0208,0.0156,1.0747,14.084,12.9771,16.5114,0,0,0
0.0098,-0.0007,1.0737,11.0305,17.5954,15.4885,0,0,0
-0.0317,0.0027,1.0352,9.3969,19.8931,14.4427,0,0,0
-0.0225,-0.0186,1.0212,9.8473,19.542,13.7176,0,0,0
0.1335,-0.001,1.0688,12.9618,20.8321,13.4351,0,0,0
-0.0781,0.0225,1.0305,14.7863,17.2672,14.2672,0,0,0
-0.0276,0.0588,1.0413,12.855,17.771,13.3282,0,0,0
0.0037,0.0701,1.0828,9.6031,21.1145,9.9389,0,0,0
-0.0237,0.0798,1.0818,3.0611,29.6107,7.1985,0,0,0
-0.0344,0.0383,1.0664,0.3969,32.9466,6.9695,0,0,0
-0.0208,0.0537,1.0212,-0.1679,34.4427,8.3053,0,0,0
-0.0613,0.064,1.0188,0.4656,33.8855,9.5267,0,0,0
-0.0579,0.0837,0.9834,2.771,33.145,8.9008,0,0,0
-0.1035,0.0935,0.9534,2.8931,30.4427,5.374,0,0,0
-0.1038,0.0845,0.9412,1.5725,27.0153,2.458,0,0,0
-0.1023,0.0569,0.9604,-0.7099,24.9389,4.5038,0,0,0
-0.1323,0.0203,0.9858,-0.4351,23.3511,7.2214,0,0,0
-0.127,0.0295,0.9893,6.4962,20.6183,7.5878,0,0,0
-0.1152,0.0718,1.0125,10.5496,19.9771,6.2214,0,0,0
-0.1458,0.1118,1.0181,8.9771,19.145,5.0992,0,0,0
-0.1128,0.1028,1.0288,6.9924,19.0458,3.0916,0,0,0
-0.1426,0.0779,1.0366,8.1374,20.8473,-0.2137,0,0,0
-0.155,0.0884,1.0403,9.9695,20.1374,-1.0992,0,0,0
-0.1543,0.0837,1.0291,8.4885,20.1069,-2.3511,0,0,0
-0.1401,0.0684,1.0613,9.8702,18.1756,-2.4733,0,0,0
-0.1125,0.1067,1.0725,6.9695,20.5191,-3.1832,0,0,0
-0.1387,0.1116,1.05,2.5191,22.5725,-5.9237,0,0,0
-0.1599,0.0798,1.0105,-1.3817,22.5573,-7.4351,0,0,0
-0.1506,0.0486,1.0154,-1.3053,20.4733,-8.2519,0,0,0
-0.1545,0.0325,1.0393,1.5038,18.9008,-8.5115,0,0,0
-0.1716,0.032,1.0217,4.2443,18.6031,-5.9924,0,0,0
-0.1633,0.061,1.0083,4.5191,17.6107,-4.3053,0,0,0
-0.1655,0.0679,0.9978,1.8779,15.1069,-4.3435,0,0,0
-0.155,0.0483,0.991,-1.084,13.7252,-2.9695,0,0,0
-0.1531,0.0525,0.9919,-3.374,13.6412,-2.7481,0,0,0
-0.1331,0.0569,0.9922,-5.7786,12.145,-2.7328,0,0,0
-0.1711,0.0154,0.9773,-5.4962,12.7786,-1.6336,0,0,0
-0.1836,0.022,0.9731,-3.542,8.4962,0.4122,0,0,0
-0.1875,0.0066,0.9631,-1.5878,4.5802,2.8473,0,0,0
-0.1895,0.0129,0.9641,1.6947,0.1603,4.916,0,0,0
-0.1804,0.0442,0.9868,2.7023,-1.9542,6.1069,0,0,0
-0.1611,0.0564,1.0173,1.6031,-0.8779,7.2824,0,0,0
-0.136,0.0776,1.0457,-1.9542,1.8855,8.8244,0,0,0
-0.1782,0.071,1.0388,-5.1221,4.5496,11.0763,0,0,0
-0.1875,0.0742,1.021,-5.7099,5.084,11.0382,0,0,0
-0.1919,0.0811,1.0107,-4.5496,4.6947,9.7023,0,0,0
-0.2007,0.0759,1.0115,-3.0229,3.7939,7.9237,0,0,0
-0.1965,0.0833,1.0078,-1.3588,3.8473,7.2214,0,0,0
-0.1887,0.0798,1.0198,0.9618,4.9237,5.8855,0,0,0
-0.1921,0.0935,1.0144,1.3435,5.1908,4.6412,0,0,0
-0.1919,0.1138,1.0229,-1.7176,5.4733,3.6718,0,0,0
-0.1904,0.124,1.0137,-6.9924,5.6565,1.6718,0,0,0
-0.1868,0.0842,1.0256,-9.0076,5.7099,0.1908,0,0,0
-0.1853,0.0688,1.032,-9.2595,6.626,-0.2443,0,0,0
-0.1924,0.05,1.0308,-7.6336,6.916,0.3206,0,0,0
-0.1931,0.0542,1.0361,-6.2366,7.5496,0.6107,0,0,0
-0.1902,0.0332,1.0325,-5.3435,8.5878,2.2595,0,0,0
-0.2,0.0496,1.0142,-2.1145,8.7023,5.1679,0,0,0
-0.2004,0.0313,1.0112,1.4885,9.9618,5.1145,0,0,0
-0.2083,0.0608,0.9956,3.5267,9.1374,5.0305,0,0,0
-0.2058,0.0872,0.998,0.7099,8.3359,3.8855,0,0,0
-0.2021,0.0881,1.012,-4.8855,7.5496,3.3206,0,0,0
-0.1863,0.0732,1.03,-9.3511,8.6031,3.3206,0,0,0
-0.207,0.0618,1.0242,-11.2061,10.7405,3.6565,0,0,0
-0.2048,0.0349,1.0056,-6.6718,11.1374,1.6489,0,0,0
-0.1863,0.0193,0.9861,-0.6794,10.4809,0.2595,0,0,0
-0.2205,0.0623,0.9973,0.7634,6.7405,-0.2137,0,0,0
-0.1968,0.0691,0.9949,-1.3664,6.9313,0.8397,0,0,0
-0.1873,0.0571,0.9829,-3.1298,6.8244,1.0687,0,0,0
-0.1965,0.0544,0.979,-4.8092,6.9237,1.3053,0,0,0
-0.1985,0.054,0.9915,-5.4351,6.9542,0.313,1,0,0
-0.2024,0.0408,0.9854,-3.6031,6.8473,-0.9084,1,0,0
-0.2043,0.0322,0.9844,-1.0,6.8397,-1.4046,1,0,0
-0.2061,0.0447,0.9819,0.8931,5.4733,-0.9237,1,0,0
-0.2073,0.072,0.9734,1.0229,4.2595,-0.145,1,0,0
-0.1841,0.0962,0.9739,-1.7023,3.6107,-0.1679,1,0,0
-0.2007,0.0898,0.9675,-3.2519,1.1069,-0.8855,1,0,0
-0.2048,0.0632,0.9709,-3.8855,0.0,-0.626,1,0,0
-0.2024,0.071,0.9761,-5.6489,-1.0153,-1.8855,1,0,0
-0.218,0.063,0.9707,-6.7557,-2.2977,-1.4275,1,0,0
-0.2134,0.0452,0.9749,-7.8168,-4.0916,-0.9847,1,0,0
-0.2039,0.0435,0.9971,-7.9847,-4.2824,-0.6336,1,0,0
-0.196,0.0239,0.9958,-4.2519,-3.3969,1.1756,1,0,0
-0.1978,0.0476,0.9924,-0.771,-2.229,1.3053,1,0,0
-0.2051,0.0835,0.9924,-0.7786,-1.5878,-1.5878,1,0,0
-0.2156,0.054,0.9756,-1.5573,-2.2901,-3.2443,1,0,0
-0.2131,0.0574,0.9919,-3.1756,-3.2672,-2.5038,1,0,0
-0.2104,0.0776,1.0129,-6.6107,-3.2824,-3.3664,1,0,0
-0.2104,0.064,1.0073,-7.9313,-3.3053,-4.0305,1,0,0
-0.2085,0.0459,1.0098,-8.145,-4.1832,-3.6031,1,0,0
-0.2144,0.0242,1.0186,-5.8092,-4.6183,-1.5649,1,0,0
-0.2178,0.0173,1.0212,-1.5954,-4.084,-0.1832,1,0,0
-0.2034,0.0356,1.011,2.0687,-3.1527,0.9847,1,0,0
-0.2061,0.063,1.0127,2.2977,-2.1603,1.2443,1,0,0
-0.2034,0.0793,1.0146,-0.3511,-1.4122,0.2977,0,0,0
-0.2073,0.0786,1.021,-2.8855,-1.4504,-0.9389,0,0,0
-0.2021,0.0745,1.0212,-5.0992,-1.0305,-1.9542,0,0,0
-0.2141,0.0466,1.0078,-4.5878,-1.3664,-2.0229,0,0,0
-0.22,0.0366,0.9946,-2.4733,-2.0687,-1.9924,0,0,0
-0.2139,0.0466,1.0066,-1.1145,-3.3511,-1.0763,0,0,0
-0.2122,0.0518,1.0076,-1.084,-3.6336,-0.8168,0,0,0
-0.2039,0.0493,1.0034,-0.084,-3.7634,-0.8397,0,0,0
-0.199,0.0603,1.0139,0.1985,-2.7252,-2.0763,0,0,0
-0.2053,0.0659,1.0081,0.1145,-2.0916,-2.771,0,0,0
-0.2141,0.0598,1.0132,0.2214,-2.4962,-3.2977,0,0,0
-0.2153,0.061,1.0188,1.0,-3.0229,-2.8473,0,0,0
-0.2058,0.0605,1.0125,2.8015,-2.2672,-3.0382,0,0,0
-0.2166,0.0718,1.0044,3.4962,-2.7405,-4.2214,0,0,0
-0.2212,0.0728,0.9971,3.4122,-3.8015,-5.3206,0,0,0
-0.2202,0.0654,0.991,1.771,-5.1298,-5.7023,0,0,0
-0.2156,0.0544,0.9976,1.5344,-6.6336,-5.3053,0,0,0
-0.196,0.0474,1.0144,2.084,-6.8626,-4.8473,0,0,0
-0.1938,0.0552,1.0242,2.6336,-6.1603,-4.0458,0,0,0
-0.2068,0.0618,1.0149,2.7863,-5.7786,-3.4962,0,0,0
-0.2036,0.0615,1.0159,3.4046,-5.8092,-4.3511,0,0,0
-0.2151,0.0593,0.9963,4.9542,-7.3282,-5.3588,0,0,0
-0.2107,0.0632,0.9873,5.0611,-9.771,-5.7557,0,0,0
-0.1938,0.0532,1.0005,5.7252,-11.2977,-5.1374,0,0,0
-0.1787,0.0625,1.011,4.855,-10.9084,-4.3817,0,0,0
-0.189,0.0581,1.0132,5.4046,-11.5573,-4.626,0,0,0
-0.1768,0.0703,1.0,5.4427,-11.5191,-4.8626,0,0,0
-0.1738,0.0798,0.9949,3.4046,-11.2595,-6.7099,0,0,0
-0.1863,0.051,0.9717,2.2748,-12.313,-8.4046,0,0,0
-0.1924,0.0371,1.0059,4.0611,-14.3435,-8.1527,0,0,0
-0.1584,0.0425,1.0354,4.7099,-13.0534,-4.2061,0,0,0
-0.1475,0.0422,1.0413,5.0153,-10.4122,-0.7634,0,0,0
-0.1567,0.0535,1.0232,5.542,-7.771,0.3206,0,0,0
-0.1658,0.0793,1.0115,5.4351,-6.5878,-0.0076,0,0,0
-0.1748,0.0833,1.0066,4.0382,-7.0305,-0.8168,0,0,0
-0.1619,0.0828,1.0215,1.5954,-7.3817,-0.7176,0,0,0
-0.1553,0.0725,1.0227,0.1603,-5.8168,-0.0992,0,0,0
-0.1538,0.0769,1.02,0.3664,-4.687,-0.2061,0,0,0
-0.1533,0.0901,1.0146,-1.3969,-3.542,-1.3969,0,0,0
-0.167,0.0759,1.01,-3.1298,-2.6947,-2.0992,0,0,0
-0.1628,0.0759,1.0208,-4.542,-2.8244,-1.0,0,0,0
-0.1562,0.0579,1.0322,-4.5191,-1.6336,0.1679,0,0,0
-0.1501,0.0398,1.0293,-1.7099,0.0458,0.9466,0,0,0
-0.1533,0.054,1.0217,0.7634,1.9313,1.542,0,0,0
-0.168,0.0571,1.0088,2.7328,2.2901,1.9389,0,0,0
-0.1682,0.0901,1.0098,2.7939,2.1908,2.4656,0,0,0
-0.1694,0.0935,1.0037,0.9618,2.5115,1.542,0,0,0
-0.176,0.0879,1.0046,0.0458,1.9695,0.4198,0,0,0
-0.1743,0.0928,1.0017,-1.2214,1.3435,-1.8473,0,0,0
-0.1655,0.0879,1.0188,-3.0611,1.1908,-2.2595,0,0,0
-0.1606,0.074,1.0186,-4.2519,2.1679,-1.229,0,0,0
-0.1709,0.0657,1.0117,-4.1908,2.458,-0.542,0,0,0
-0.1765,0.0735,1.0063,-3.4504,1.9084,-0.3893,0,0,0
-0.1758,0.0815,0.9822,-2.2519,0.7634,-1.1298,1,0,0
-0.1677,0.0596,1.0076,-2.0534,-0.6031,-1.916,1,0,0
-0.1797,0.0901,1.0049,-1.7252,-0.916,-0.8168,1,0,0
-0.1692,0.0498,1.0229,-0.8244,-1.855,-0.6183,1,0,0
-0.1619,0.0725,1.0168,0.2824,-0.5954,-0.458,1,0,0
-0.1748,0.0935,1.0171,-1.0,-0.3206,-0.6107,1,0,0
-0.1685,0.1023,1.0183,-3.8473,-0.5496,-1.084,1,0,0
-0.1711,0.0918,1.0139,-6.2672,-0.9542,-1.5802,1,0,0
-0.1655,0.0886,1.0115,-7.7023,-1.3359,-1.6489,1,0,0
-0.1641,0.0737,1.0151,-7.374,-0.5496,-1.5115,1,0,0
-0.1682,0.0808,1.0198,-7.8626,-0.0687,-1.6489,1,0,0
-0.166,0.0718,1.011,-5.6641,1.2443,-3.084,1,0,0
-0.176,0.062,0.9966,-3.1756,1.0534,-3.4656,1,0,0
-0.1816,0.0796,0.9976,-2.1374,-0.4504,-4.3435,1,0,0
-0.1797,0.0862,1.0081,-3.8779,-1.3817,-4.3893,1,0,0
-0.167,0.0691,1.011,-5.5038,-1.6641,-3.3588,1,0,0
-0.1733,0.051,1.0205,-4.6565,-1.2443,-2.1374,1,0,0
-0.1743,0.0613,1.0144,-3.1756,-1.542,-1.2214,1,0,0
-0.1755,0.0686,1.0103,-1.9084,-1.5954,-1.0916,1,0,0
-0.1838,0.073,1.0093,-0.6107,-1.7939,-1.8779,1,0,0
-0.1753,0.0781,1.0105,1.374,-1.9847,-3.5115,1,0,0
-0.1704,0.0991,1.0259,2.5725,-1.3511,-5.6031,1,0,0
-0.1731,0.0979,1.0283,1.7023,-0.7405,-7.4885,0,0,0
-0.1697,0.0881,1.0359,1.6107,0.1985,-9.0687,0,0,0
-0.1548,0.0928,1.0459,2.229,2.9924,-11.9924,0,0,0
-0.1587,0.0984,1.052,2.5496,6.1527,-14.9466,0,0,0
-0.1614,0.0933,1.0466,2.9924,9.458,-19.3206,0,0,0
-0.1719,0.0942,1.0532,5.1756,11.7863,-23.8015,0,0,0
-0.176,0.0959,1.0444,8.5267,14.0611,-27.4809,0,0,0
-0.1641,0.0952,1.0388,10.4504,16.0458,-30.8931,0,0,0
-0.1733,0.0828,1.0479,11.1298,18.6336,-31.3435,0,0,0
-0.1482,0.113,1.0481,10.229,22.0992,-32.2366,0,0,0
-0.2209,0.0725,1.02,8.2901,23.0687,-31.9695,0,0,0
-0.2268,0.0637,1.0007,6.8092,20.9618,-30.6641,0,0,0
-0.2271,0.0569,0.9983,7.7481,18.7634,-30.0992,0,0,0
-0.2395,0.0483,0.9956,8.2366,15.4427,-26.5725,0,0,0
-0.217,0.0488,1.0081,8.9466,14.0458,-21.8397,0,0,0
-0.2058,0.0444,1.0159,10.1756,14.6565,-18.2748,0,0,0
-0.2166,0.0652,1.0049,10.6565,14.9924,-16.145,0,0,0
-0.2444,0.0869,0.979,8.3664,13.1985,-14.8473,0,0,0
-0.2473,0.0781,0.967,5.7328,9.3435,-13.2137,0,0,0
-0.2336,0.0593,1.0056,4.8244,6.9084,-11.3893,0,0,0
-0.1982,0.0762,1.0417,6.229,7.6489,-10.687,0,0,0
-0.1965,0.0925,1.0491,6.7328,11.7634,-11.2901,0,0,0
-0.1882,0.0925,1.0605,6.2748,16.6183,-12.0458,0,0,0
-0.2222,0.0781,1.0356,7.1527,19.855,-12.7939,0,0,0
-0.2441,0.0759,0.9985,7.6718,20.6336,-12.229,0,0,0
-0.2654,0.0859,0.9839,6.8702,18.9924,-11.2519,0,0,0
-0.27,0.0757,0.9663,5.6336,15.3511,-9.2748,0,0,0
-0.2581,0.082,0.9788,4.0992,13.1145,-7.7863,0,0,0
-0.2424,0.0835,0.9851,3.542,12.2977,-7.7863,0,0,0
-0.2483,0.0916,0.9807,2.4275,11.9389,-7.7252,0,0,0
-0.262,0.0867,0.9695,1.3053,10.0,-6.3664,0,0,0
-0.2515,0.0811,0.9727,1.9847,8.6794,-6.3969,0,0,0
-0.2329,0.0845,1.0073,4.6183,10.0,-5.9237,0,0,0
-0.2317,0.0979,1.0256,6.7099,13.5344,-6.2824,0,0,0
-0.2422,0.1675,1.0466,9.4656,11.2366,-7.7786,0,0,0
-0.2583,0.0637,0.9902,2.6947,22.0458,-8.3893,0,0,0
-0.2969,0.0859,0.9541,8.7023,16.5191,-6.7252,0,0,0
-0.3003,0.0981,0.9392,8.7481,13.2214,-6.4733,0,0,0
-0.2979,0.1492,0.9363,6.4504,9.3969,-7.6183,0,0,0
-0.2898,0.1394,0.9458,2.2137,6.2748,-9.7634,0,0,0
-0.2693,0.1165,0.9514,1.9847,5.0534,-10.8168,0,0,0
-0.2673,0.1113,0.9661,3.5954,5.6794,-11.3664,0,0,0
-0.283,0.1011,0.9619,4.6107,5.0992,-11.1527,0,0,0
-0.2854,0.1121,0.9585,3.374,3.9466,-9.9618,0,0,0
-0.2791,0.1042,0.9619,2.5802,3.0229,-9.3435,0,0,0
-0.2791,0.104,0.9634,2.8321,1.9847,-9.7634,0,0,0
-0.269,0.1018,0.969,6.0458,1.5573,-12.5191,0,0,0
-0.2744,0.1187,0.9614,6.542,1.4809,-13.1603,0,0,0
-0.2849,0.1018,0.9585,4.626,0.458,-12.7176,0,0,0
-0.2729,0.092,0.969,2.8931,-0.4122,-10.5725,0,0,0
-0.2703,0.0867,0.9817,3.1298,-0.4885,-9.5496,0,0,0
-0.2739,0.1035,0.9812,2.2977,-0.1069,-8.3511,0,0,0
-0.2832,0.1062,0.9685,2.1298,-0.0153,-8.145,0,0,0
-0.2874,0.0913,0.9592,1.8931,-0.8321,-6.7634,0,0,0
-0.2947,0.074,0.9431,1.3282,-2.9924,-3.5573,0,0,0
-0.2849,0.0769,0.967,0.374,-4.6336,0.9008,0,0,0
-0.2722,0.0835,0.9751,-0.8092,-4.9924,3.6565,0,0,0
-0.2666,0.0952,0.989,-1.8321,-3.8092,4.8015,0,0,0
-0.2761,0.1016,0.9897,-1.4046,-2.1832,4.9618,0,0,0
-0.2793,0.1072,0.9939,0.3435,-1.626,4.3664,0,0,0
-0.2742,0.1121,0.9912,1.3206,-0.771,3.6031,0,0,0
-0.283,0.1157,0.9868,1.6489,-0.2214,3.1374,0,0,0
-0.2888,0.1265,0.9851,0.8168,-0.4504,2.8092,0,0,0
-0.2922,0.1338,0.9873,-0.229,-1.1221,2.8779,0,0,0
-0.2878,0.1396,0.9797,-2.7557,-1.687,2.2443,0,0,0
-0.2813,0.1191,0.9846,-4.7481,-1.7405,1.3206,0,0,0
-0.2717,0.092,1.0073,-4.2443,-0.626,2.0382,0,0,0
-0.2712,0.0898,1.0005,-2.8244,1.5496,3.1221,0,0,0
-0.2803,0.1045,0.9956,-1.8397,2.6718,4.542,0,0,0
-0.2893,0.1116,0.9846,-1.6031,2.7176,5.0687,0,0,0
-0.3579,0.0852,0.9707,-2.0611,0.7557,6.7328,0,0,0
-0.2927,0.1111,0.9778,-5.1298,0.7557,5.7557,0,0,0
-0.2974,0.0974,0.9736,-4.4733,-0.3817,6.4962,0,0,0
-0.2944,0.1016,0.9836,-1.916,-0.6718,6.5954,0,0,0
-0.2854,0.1201,0.9907,-0.2214,-0.1221,6.5802,0,0,0
-0.2773,0.1306,0.9971,-1.3893,0.8244,5.4122,0,0,0
-0.2754,0.1416,1.0081,-5.1832,2.4351,5.5802,0,0,0
-0.2842,0.1274,0.9919,-8.687,3.0534,4.6565,0,0,0
-0.292,0.1016,0.9841,-9.2443,2.8244,5.8015,0,0,0
-0.3003,0.0903,0.9709,-6.6718,1.6947,6.4809,0,0,0
-0.2979,0.0886,0.9663,-5.2137,0.6031,7.855,1,0,0
-0.2925,0.0852,0.9751,-2.687,-0.2366,8.8321,1,0,0
-0.2803,0.1182,0.9949,-1.1908,-0.0687,7.9847,1,0,0
-0.2756,0.1375,0.9954,-1.687,0.9084,5.5878,1,0,0
-0.2813,0.1489,0.9932,-4.0763,1.8855,2.8092,1,0,0
-0.2878,0.1196,0.9888,-4.8092,2.4046,0.9542,1,0,0
-0.2905,0.1069,0.9832,-4.0534,2.3282,-0.3664,1,0,0
-0.2927,0.1023,0.9773,-2.9084,1.5191,-0.3817,1,0,0
-0.2832,0.1021,0.969,-1.0,1.0229,-0.4046,1,0,0
-0.2764,0.1267,0.979,-1.8931,0.771,-0.4046,1,0,0
-0.2778,0.1282,0.9751,-4.1985,0.7557,-1.0534,1,0,0
-0.2822,0.1084,0.9644,-4.5344,0.771,-0.9237,1,0,0
-0.2861,0.1006,0.9724,-2.6794,0.4733,-1.1221,1,0,0
-0.2876,0.1064,0.9683,-1.9084,0.2901,-0.5649,1,0,0
-0.2834,0.1094,0.9795,-1.0763,0.1298,-0.0458,1,0,0
-0.2727,0.1233,0.9778,-0.6947,0.7863,-0.313,1,0,0
-0.2773,0.1343,0.979,-1.1221,1.4656,-0.9771,1,0,0
-0.2893,0.137,0.9712,-2.5954,1.3664,-2.5802,1,0,0
-0.2993,0.1172,0.9661,-3.7481,0.0382,-2.9847,1,0,0
-0.2886,0.0828,0.9705,-1.4733,-0.1145,-2.1221,1,0,0
-0.2788,0.0911,0.9885,2.8168,0.8397,-2.1603,1,0,0
-0.2869,0.1306,0.9878,4.3206,1.626,-1.8779,1,0,0
-0.2893,0.1458,0.9822,1.7099,1.7786,-3.1985,1,0,0
-0.2927,0.1328,0.9751,-0.4885,1.229,-4.458,1,0,0
-0.2915,0.1272,0.9712,-2.2214,0.8015,-4.5954,1,0,0
-0.2937,0.1082,0.9819,-2.313,0.3893,-3.8779,1,0,0
-0.293,0.1096,0.9709,-0.7328,0.0992,-3.1985,1,0,0
-0.2896,0.1152,0.978,-0.6947,0.3969,-1.9389,1,0,0
-0.2813,0.1089,0.9919,-0.9084,1.1527,-0.7328,1,0,0
-0.2788,0.1089,0.9851,-1.374,2.2366,-0.2977,1,0,0
-0.2905,0.1206,0.9795,-2.1145,2.5115,-0.5725,1,0,0
-0.3035,0.1167,0.9727,-3.4809,1.4122,-0.2519,1,0,0
-0.2971,0.0867,0.978,-1.6718,0.3053,-0.1679,1,0,0
-0.283,0.094,0.9949,3.3664,1.7176,-1.0229,1,0,0
-0.2795,0.1206,1.0042,5.0229,3.8015,-2.084,1,0,0
-0.2883,0.1404,0.9985,4.0229,5.6947,-3.084,1,0,0
-0.3,0.1384,0.991,1.6412,6.3893,-4.1527,1,0,0
-0.3054,0.136,0.9719,-0.1298,5.5038,-5.1832,1,0,0
-0.3164,0.1316,0.9536,-2.313,3.6489,-5.6947,1,0,0
-0.3093,0.1138,0.9587,-3.9618,1.3206,-5.3893,1,0,0
-0.2927,0.0759,0.9751,-1.1985,1.0382,-5.9618,1,0,0
-0.2922,0.0964,0.9739,2.9542,2.084,-6.3893,1,0,0
-0.2981,0.1099,0.969,6.5496,3.2519,-6.9008,1,0,0
-0.2976,0.1392,0.9739,5.0076,3.3206,-6.9924,1,0,0
-0.2979,0.1311,0.9763,2.084,3.1832,-7.0076,1,0,0
-0.3018,0.1223,0.9731,0.9771,2.6107,-7.4656,1,0,0
-0.2998,0.123,0.9714,1.4122,2.6031,-7.4198,1,0,0
-0.3259,0.2893,1.0444,7.9466,-12.8321,-9.2748,1,0,0
-0.3108,0.0403,0.9756,-4.0534,6.6031,-8.9618,1,0,0
-0.2927,0.1199,0.9683,3.6489,1.4962,-3.2977,1,0,0
-0.3137,0.0952,0.9524,0.7176,2.458,-1.4504,1,0,0
-0.3032,0.1409,0.9438,-1.8473,0.5496,-1.2214,1,0,0
-0.3103,0.1394,0.9446,-4.4046,-1.5725,-2.3435,1,0,0
-0.3176,0.1147,0.9541,-3.8626,-2.6565,-2.4733,1,0,0
-0.302,0.0962,0.9573,-1.687,-3.2443,-1.3511,1,0,0
-0.2969,0.1169,0.9641,0.0229,-3.2824,-0.2748,1,0,0
-0.2893,0.1257,0.9761,-1.3206,-2.7863,0.3588,1,0,0
-0.2908,0.1289,0.9827,-2.1985,-2.2137,-0.4885,1,0,0
-0.3,0.1255,0.9844,-3.1374,-1.3511,-0.7863,1,0,0
-0.2969,0.1169,0.9802,-3.1985,-1.7176,-0.4733,1,0,0
-0.2988,0.1125,0.9827,-2.6641,-1.6412,-0.2595,1,0,0
-0.2847,0.1021,0.9944,-1.2748,-0.7481,0.5954,1,0,0
-0.291,0.1133,0.9785,0.1527,0.4198,1.3664,1,0,0
-0.3037,0.1177,0.9756,1.9695,0.6336,1.3893,1,0,0
-0.3154,0.1443,0.9614,0.1985,-0.229,0.7939,1,0,0
-0.3115,0.1377,0.9692,-1.9008,-1.542,0.313,1,0,0
-0.3091,0.1367,0.9702,-3.2519,-1.9542,-1.3359,1,0,0
-0.3022,0.1274,0.9861,-4.1985,-1.6794,-1.8473,1,0,0
-0.3032,0.1221,0.9949,-4.3053,-0.7863,-2.1679,1,0,0
-0.3069,0.0981,0.991,-2.8931,-0.3053,-1.7099,1,0,0
-0.3027,0.103,0.979,0.4656,0.2748,-0.7557,1,0,0
-0.2991,0.1143,0.9839,1.2366,0.6107,-0.3664,1,0,0
-0.3003,0.1213,0.9905,0.5267,1.1756,-0.4427,1,0,0
-0.3079,0.1316,0.9771,-1.3817,1.2061,-1.0611,1,0,0
-0.3123,0.1299,0.9707,-2.4504,0.8931,-1.8397,1,0,0
-0.3101,0.1255,0.9751,-3.9389,0.5954,-2.4427,1,0,0
-0.3066,0.1069,0.9719,-2.8702,0.145,-1.6336,1,0,0
-0.3066,0.1079,0.9766,-0.6947,0.7252,-1.8244,1,0,0
-0.3105,0.1145,0.9663,1.7252,0.1679,-1.5496,1,0,0
-0.303,0.1323,0.9668,0.6794,-0.1832,-1.8244,1,0,0
-0.3,0.1311,0.9751,-1.0076,-0.5954,-2.5267,1,0,0
-0.3064,0.1255,0.9749,-2.3969,-1.1298,-3.3817,1,0,0
-0.3042,0.1123,0.9834,-3.1527,-1.2901,-3.0305,1,0,0
-0.3,0.0989,0.9878,-2.6031,-1.2519,-1.4962,1,0,0
-0.2922,0.1101,0.9844,-0.6183,-0.0153,-0.1832,1,0,0
-0.2954,0.1252,0.9954,-1.2977,1.0687,-0.5649,1,0,0
-0.3025,0.1377,0.9854,-2.9695,0.8702,-1.2137,1,0,0
-0.3093,0.1387,0.9805,-4.7252,0.4504,-2.4504,1,0,0
-0.3069,0.0933,0.9507,-5.0229,-0.5191,-1.4198,1,0,0
-0.314,0.1116,0.9741,-5.9237,-0.8168,-1.3969,1,0,0
-0.2996,0.1008,0.9668,-5.7328,-0.3511,-0.8244,1,0,0
-0.304,0.0955,0.9702,-2.8244,-0.0611,-0.4351,1,0,0
-0.301,0.1116,0.9739,-0.3282,-0.3359,-0.3817,1,0,0
-0.301,0.1326,0.9661,0.0229,-0.2519,-0.6489,1,0,0
-0.293,0.1311,0.9746,-1.0916,-0.1374,-1.1985,1,0,0
-0.3035,0.1245,0.9526,-1.5802,-0.4275,-1.9084,1,0,0
-0.3054,0.1147,0.9604,-1.6412,-0.8931,-1.6489,1,0,0
-0.3005,0.1069,0.958,-0.9084,-1.0458,-1.771,1,0,0
-0.2974,0.1108,0.9749,-1.3435,-1.0534,-1.0534,1,0,0
-0.3076,0.1033,0.9766,-1.313,-0.855,-0.1221,1,0,0
-0.303,0.0977,0.9861,-0.084,0.4122,1.3817,1,0,0
-0.3049,0.0986,0.9854,1.1985,0.2824,2.626,1,0,0
-0.3103,0.1143,0.9712,2.1832,0.1985,2.6412,1,0,0
-0.3115,0.1323,0.9722,1.6489,-0.0305,1.7939,1,0,0
-0.312,0.1282,0.9707,0.8931,-0.3969,0.7252,1,0,0
-0.3174,0.1187,0.9778,-0.4198,-1.0229,0.7099,1,0,0
-0.3052,0.1121,0.9839,-0.9313,-0.5878,2.2137,1,0,0
-0.3025,0.1055,0.9941,-1.4733,0.8779,4.1603,1,0,0
-0.3083,0.1086,0.989,-0.8473,1.9847,5.7786,1,0,0
-0.3083,0.134,0.9861,-0.2977,2.687,6.084,1,0,0
-0.3215,0.1426,0.9758,0.3588,2.2824,3.8855,1,0,0
-0.3171,0.1602,0.9702,-1.7252,0.8092,1.7252,1,0,0
-0.3035,0.1445,0.9727,-6.3511,-0.2443,1.2443,1,0,0
-0.2937,0.104,0.9822,-9.0763,0.229,3.0763,1,0,0
-0.2888,0.0869,0.981,-8.084,0.9771,4.4198,1,0,0
-0.2961,0.094,0.9771,-5.1069,1.9389,4.0305,1,0,0
-0.3044,0.1218,0.9792,-1.458,2.1985,2.7328,1,0,0
-0.3079,0.1333,0.9707,-0.6641,1.7252,1.374,1,0,0
-0.3074,0.1211,0.9526,-0.9618,0.7328,0.5267,1,0,0
-0.3042,0.1152,0.9529,-0.4504,-0.626,-0.1832,1,0,0
-0.2952,0.1135,0.9705,-0.8473,0.1603,0.1527,1,0,0
-0.2854,0.1213,0.9778,-1.4427,1.4046,1.1069,1,0,0
-0.2959,0.1218,0.9775,-1.3588,2.7252,0.8168,1,0,0
-0.3037,0.1284,0.9705,-0.687,3.1985,-0.9466,1,0,0
-0.3167,0.1338,0.9622,0.1374,1.8855,-2.2824,1,0,0
-0.321,0.1389,0.9629,-0.9237,0.0992,-2.5267,1,0,0
-0.3164,0.1189,0.9592,-0.084,-0.2748,-2.8244,1,0,0
-0.3066,0.1238,0.9543,2.145,-0.3664,-2.9008,1,0,0
-0.3027,0.1311,0.9377,2.4046,-0.1221,-5.2366,1,0,0
-0.3054,0.1621,0.9722,-3.1069,-0.5038,-4.9084,1,0,0
-0.3232,0.1282,0.9629,-2.8779,-2.3969,-4.7252,1,0,0
-0.312,0.113,0.9751,-2.5344,-3.3588,-4.8626,1,0,0
-0.3037,0.1289,0.9812,-3.145,-3.0229,-4.3511,1,0,0
-0.2998,0.1116,0.9851,-4.0916,-2.1832,-3.4351,1,0,0
-0.2915,0.1069,0.9834,-3.9695,-1.2748,-1.9313,1,0,0
-0.3013,0.1221,0.9861,-5.1221,-1.0076,-1.2443,1,0,0
-0.2998,0.1089,0.9797,-6.9542,-0.8779,-0.2366,1,0,0
-0.3059,0.1025,0.98,-6.5573,-0.7328,-0.1985,1,0,0
-0.3098,0.1108,0.979,-4.4198,-0.8092,-0.3588,1,0,0
-0.3101,0.103,0.9746,-2.4885,-0.6947,-1.0,1,0,0
-0.3003,0.0994,0.9651,-0.5878,-0.3511,-0.8626,1,0,0
-0.3022,0.1208,0.9746,-2.145,-0.2137,-0.4198,1,0,0
-0.3008,0.1331,0.9751,-4.2366,0.229,-0.5649,1,0,0
-0.3074,0.1143,0.9746,-5.145,-0.1298,-1.0153,1,0,0
-0.3086,0.1045,0.9629,-3.916,-0.771,-0.7405,1,0,0
-0.3098,0.1033,0.9575,-2.3435,-0.7481,-0.6031,1,0,0
-0.3132,0.114,0.9587,-0.3206,-1.3664,0.2519,1,0,0
-0.3096,0.1187,0.9749,0.5344,-1.3282,0.0,1,0,0
-0.3083,0.1223,0.9634,0.7863,-1.1145,-0.0916,1,0,0
-0.304,0.134,0.9768,-0.2214,-0.8473,0.0916,1,0,0
-0.3057,0.1357,0.9775,-1.9084,-0.8702,-0.9008,1,0,0
-0.3108,0.1355,0.9739,-3.9389,-1.2214,-2.1985,1,0,0
-0.3127,0.1177,0.9727,-4.687,-1.3435,-2.7099,1,0,0
-0.3103,0.105,0.9727,-3.8626,-2.0763,-2.5573,1,0,0
-0.303,0.1025,0.9788,-2.9542,-2.1679,-1.8397,1,0,0
-0.3064,0.0942,0.9829,-1.7099,-1.4962,-1.0382,1,0,0
-0.3152,0.1018,0.9832,0.5725,-1.458,-0.3511,1,0,0
-0.3105,0.1309,0.9814,-0.0687,-1.3359,-0.6336,1,0,0
-0.3071,0.1292,0.9692,-2.0687,-1.3817,-1.1374,1,0,0
-0.3059,0.1221,0.9829,-3.3969,-0.9695,-2.3053,1,0,0
-0.3098,0.1299,0.9832,-3.6718,-0.9008,-3.4351,1,0,0
-0.312,0.1279,0.9771,-4.5725,-1.2519,-4.7863,1,0,0
-0.3123,0.1064,0.9744,-4.458,-0.9695,-4.5344,1,0,0
-0.3201,0.1001,0.9687,-3.0687,-1.3359,-3.3282,1,0,0
-0.302,0.0967,0.9795,-0.7023,-0.4733,-1.7099,0,0,0
-0.3057,0.1223,0.9824,0.5115,0.2366,-1.5878,0,0,0
-0.2942,0.1389,0.9817,-1.2824,1.3435,-1.3817,0,0,0
-0.2947,0.1165,0.9863,-3.0,3.1985,-1.6794,0,0,0
-0.2957,0.1106,1.0056,-2.4046,4.2366,-1.5878,0,0,0
-0.3003,0.1072,0.9819,-1.4351,5.2443,-1.1221,0,0,0
-0.3135,0.0876,0.967,-1.0687,4.7634,-0.0687,0,0,0
-0.2925,0.0801,0.9802,1.2595,5.0,0.3435,0,0,0
-0.2983,0.0896,0.9829,3.5725,6.3511,1.5496,0,0,0
-0.3088,0.1143,0.9717,3.1679,6.3893,2.0153,0,0,0
-0.3147,0.1267,0.9619,0.8168,6.3206,1.9084,0,0,0
-0.3218,0.1216,0.9514,-0.2901,4.9924,0.7863,0,0,0
-0.3206,0.1323,0.9326,-0.9008,3.458,0.7252,0,0,0
-0.3196,0.1262,0.9453,-2.1756,2.0229,-0.1298,0,0,0
-0.325,0.1355,0.947,-2.1298,0.7023,-1.0305,0,0,0
-0.3176,0.1328,0.9631,-3.8626,-0.3053,-1.0,0,0,0
-0.3076,0.1104,0.9712,-2.8015,-0.0687,-1.4198,0,0,0
-0.3176,0.1096,0.9731,-0.4962,0.916,-0.7405,0,0,0
-0.3191,0.1155,0.9648,1.6641,0.8702,-0.9924,0,0,0
-0.3142,0.1414,0.9644,1.4122,1.2519,-1.7099,0,0,0
-0.3157,0.1357,0.969,-1.1069,1.0076,-3.1527,0,0,0
-0.3213,0.127,0.9658,-4.1298,0.4733,-3.9618,0,0,0
-0.3303,0.1025,0.9758,-5.3053,-0.5038,-3.3282,0,0,0
-0.3196,0.0991,0.981,-5.5725,-0.7863,-1.5267,0,0,0
-0.321,0.0972,0.9863,-5.3969,-0.3893,-0.5802,0,0,0
-0.3123,0.1018,0.999,-3.4962,0.5267,-1.1832,0,0,0
-0.3254,0.1155,0.9883,-2.8626,1.4351,-2.458,0,0,0
-0.3313,0.1116,0.9685,-2.1527,1.0153,-3.0992,0,0,0
-0.3276,0.0903,0.9578,-1.1145,0.2595,-2.4427,0,0,0
-0.3208,0.0945,0.9336,0.7634,-0.7023,-1.2366,0,0,0
-0.3057,0.1311,0.9675,-2.2061,-0.3588,-1.8092,0,0,0
-0.311,0.1335,0.979,-5.6412,1.0992,-2.3588,0,0,0
-0.3145,0.1121,0.9753,-6.0229,0.6565,-2.6718,0,0,0
-0.3259,0.104,0.9714,-5.2366,-0.2595,-2.3511,0,0,0
-0.3169,0.0952,0.9724,-3.9389,-0.687,-2.3435,0,0,0
-0.313,0.0872,0.967,-2.9237,-0.458,-2.0611,0,0,0
-0.3071,0.0923,0.9727,-1.916,-0.542,-0.1069,0,0,0
-0.3066,0.0857,0.981,-0.2748,0.8015,1.3206,0,0,0
-0.3054,0.0947,0.9873,1.1221,2.0,2.1527,0,0,0
-0.314,0.1108,0.9744,2.0992,2.3511,2.4198,0,0,0
-0.3308,0.1309,0.9514,0.9771,1.145,1.7634,0,0,0
-0.3252,0.1277,0.957,-0.9084,0.084,1.3969,0,0,0
-0.3308,0.114,0.9497,-1.1908,-0.5878,-0.4656,0,0,0
-0.3271,0.1238,0.9958,-1.2366,-0.4046,-1.7099,0,0,0
-0.311,0.115,0.9973,-1.2519,1.8015,-0.8321,1,0,0
-0.3271,0.0835,0.9749,5.3588,3.3053,-0.855,1,0,0
-0.3171,0.1128,0.9304,8.2901,3.1145,-0.0763,1,0,0
-0.3174,0.1277,0.9622,7.6947,2.3817,-0.9924,1,0,0
-0.335,0.1931,0.9536,1.4962,1.1221,-1.0992,1,0,0
-0.3311,0.0916,0.9578,0.1221,-1.4275,-2.1679,1,0,0
-0.3052,0.1477,0.9731,-0.2214,-1.1298,-1.9084,1,0,0
-0.3181,0.1423,0.9902,-2.855,-1.0229,-2.2519,1,0,0
-0.3049,0.123,0.9836,-3.7481,-0.5649,-2.0305,1,0,0
-0.3103,0.1299,0.968,-5.1679,-0.3359,-1.8626,1,0,0
-0.3193,0.1272,0.9575,-8.5496,-1.5038,-1.3359,1,0,0
-0.3159,0.0896,0.9502,-8.8168,-2.2977,-0.0305,1,0,0
-0.3262,0.1082,0.9514,-6.9084,-3.5725,0.6031,1,0,0
-0.3108,0.1106,0.9626,-6.771,-3.8015,1.2443,1,0,0
-0.3066,0.106,0.9573,-4.6489,-2.6641,0.6794,1,0,0
-0.3071,0.0847,0.9539,-2.1069,-2.3588,2.0229,1,0,0
-0.3252,0.1375,0.9719,-1.458,-2.0,0.6794,1,0,0
-0.3259,0.1309,0.969,-2.6641,-2.2366,-0.0458,1,0,0
-0.3323,0.1196,0.9678,-3.1221,-3.6489,-0.2366,1,0,0
-0.3203,0.1277,0.9707,-4.2061,-4.0992,-0.7252,1,0,0
-0.3203,0.1335,0.9707,-5.7252,-3.9008,-1.855,1,0,0
-0.3162,0.1206,0.9832,-6.8855,-3.5802,-2.6107,1,0,0
-0.3162,0.1133,0.9873,-6.0534,-2.7405,-2.6183,1,0,0
-0.3223,0.093,0.9854,-4.771,-1.8702,-2.4427,1,0,0
-0.3259,0.0898,0.9846,-2.0611,-2.1221,-1.0763,0,0,0
-0.3176,0.106,0.9846,-0.2595,-2.0534,-0.4351,0,0,0
-0.313,0.1094,0.9758,-0.9771,-1.8321,-0.9847,0,0,0
-0.3196,0.1199,0.9756,-2.7176,-1.5573,-0.8321,0,0,0
-0.314,0.1123,0.9802,-3.6031,-1.1298,-0.5038,0,0,0
-0.3164,0.1072,0.978,-2.6412,-0.8931,-0.5038,0,0,0
-0.3247,0.1094,0.9648,-1.9466,-0.8931,-0.3664,0,0,0
-0.3218,0.1138,0.9622,-1.4504,-1.8015,-0.3282,0,0,0
-0.3176,0.1211,0.9658,-1.084,-2.7405,-0.7023,0,0,0
-0.2981,0.1333,0.9666,-3.3664,-2.916,-1.1221,0,0,0
-0.3052,0.1228,0.9744,-5.0916,-1.9313,-2.0611,0,0,0
-0.3076,0.1069,0.9683,-4.6489,-1.5191,-2.5649,0,0,0
-0.3245,0.1008,0.9595,-3.7176,-1.626,-1.8321,0,0,0
-0.322,0.0908,0.9702,-1.855,-2.5038,-0.6641,0,0,0
-0.3201,0.1069,0.9521,-1.0,-3.626,-0.1145,0,0,0
-0.3208,0.1179,0.9602,-1.6718,-4.8168,-0.5496,0,0,0
-0.3252,0.1274,0.9619,-3.9466,-5.5649,-0.9389,0,0,0
-0.3142,0.116,0.9639,-5.9237,-5.6718,-1.313,0,0,0
-0.3069,0.1023,0.981,-5.2824,-5.5191,-1.7863,0,0,0
-0.2859,0.0837,1.0059,-2.2595,-2.9084,-1.4046,0,0,0
-0.3005,0.0957,0.9951,0.1221,-0.687,-1.1603,0,0,0
-0.3184,0.0972,0.9753,0.1756,-0.855,-0.9771,0,0,0
-0.3203,0.1025,0.9687,-0.2366,-2.0153,-0.8092,0,0,0
-0.3123,0.1082,0.9705,-1.8397,-2.8931,-0.3359,0,0,0
-0.3,0.1042,0.98,-3.0,-3.229,-0.4427,0,0,0
-0.3037,0.1167,0.9771,-3.8092,-2.2672,-1.5191,0,0,0
-0.3181,0.1167,0.9707,-4.3893,-2.7252,-2.5802,0,0,0
-0.3096,0.0779,0.9846,-3.2824,-3.2595,-1.1908,0,0,0
-0.2983,0.0757,0.9829,-0.1756,-2.0076,0.3435,0,0,0
-0.2998,0.0891,0.9763,1.9847,-1.3053,1.4885,0,0,0
-0.3105,0.1169,0.9619,1.6565,-1.4656,1.4046,0,0,0
-0.314,0.1255,0.9529,-0.8779,-3.4885,0.916,0,0,0
-0.3179,0.1213,0.9573,-2.8092,-5.1985,1.084,0,0,0
-0.3184,0.1226,0.9553,-4.4885,-7.0458,0.4733,0,0,0
-0.3123,0.1187,0.9548,-5.4198,-8.7863,0.3435,0,0,0
-0.3391,0.1018,0.9631,-8.0,-11.5649,2.3893,0,0,0
-0.3108,0.0898,0.9465,-9.4046,-12.4198,3.7023,0,0,0
-0.2822,0.1011,0.9463,-11.1298,-15.916,5.9237,0,0,0
-0.3162,0.0791,0.9407,-10.2595,-19.5191,9.084,0,0,0
-0.2695,0.1765,0.9429,-12.6641,-19.1069,10.8168,0,0,0
-0.2522,0.0933,0.9587,-10.1298,-19.2672,8.8397,0,0,0
-0.3101,0.075,0.9792,-8.1221,-22.6489,8.7939,0,0,0
-0.2715,0.0879,0.9858,-7.0153,-23.4733,10.5344,0,0,0
-0.2507,0.0779,1.0115,-4.9847,-21.2595,12.4046,0,0,0
-0.2329,0.0903,1.0303,-3.0153,-17.3588,12.5038,0,0,0
-0.2429,0.1189,1.0452,-2.1832,-12.1756,10.4122,0,0,0
-0.2473,0.145,1.0435,-2.0229,-7.9847,6.7252,0,0,0
-0.2476,0.1345,1.0542,-2.8855,-5.7786,4.313,0,0,0
-0.2563,0.1013,1.0454,-0.4427,-2.3664,2.5267,0,0,0
-0.2532,0.1055,1.0386,1.9618,-0.6031,0.8473,0,0,0
-0.2461,0.1191,1.0427,0.8855,2.7099,1.4504,0,0,0
-0.2573,0.1062,1.0271,-0.5649,4.6794,1.1603,0,0,0
-0.2732,0.0916,1.0225,0.5115,5.3664,1.0458,0,0,0
-0.2688,0.0874,1.0071,1.9695,5.5802,1.1756,0,0,0
-0.2617,0.0942,1.0015,2.4733,6.4275,1.2748,0,0,0
-0.2646,0.0977,1.0112,2.3511,6.7557,0.5725,0,0,0
-0.2603,0.1008,1.0149,1.6107,7.687,0.4656,0,0,0
-0.2588,0.1045,1.0229,0.8397,9.3664,0.2366,0,0,0
-0.2539,0.0986,1.011,2.7252,11.8015,-0.7328,0,0,0
-0.2656,0.1213,0.999,3.2061,13.4427,-1.9618,0,0,0
-0.2722,0.1323,0.9817,1.3969,13.3359,-3.7252,0,0,0
-0.2878,0.1035,0.9702,0.8244,12.2137,-4.2137,0,0,0
-0.2876,0.105,0.9668,1.7252,10.6565,-3.7328,0,0,0
-0.2954,0.1003,0.949,0.7481,8.687,-3.145,0,0,0
-0.2974,0.095,0.9519,0.8931,6.2901,-2.4885,0,0,0
-0.2849,0.1213,0.9705,2.0458,6.2366,-2.7863,0,0,0
-0.2759,0.1133,0.9854,2.8779,7.2748,-3.5115,0,0,0
-0.27,0.1296,0.9912,2.0611,8.8397,-3.6794,0,0,0
-0.2839,0.126,0.9932,-0.4046,10.3588,-3.7176,0,0,0
-0.2725,0.1189,0.979,-0.542,10.229,-3.3588,0,0,0
-0.2917,0.1338,0.9773,-0.0763,10.6107,-5.4046,0,0,0
-0.3054,0.116,0.98,-2.0534,10.2977,-6.2519,0,0,0
-0.2976,0.1177,0.9773,-3.4275,9.8092,-6.8244,0,0,0
-0.3037,0.0894,0.9687,-3.8931,8.6718,-5.9771,0,0,0
-0.2988,0.0894,0.9707,-4.0382,8.6947,-4.2214,0,0,0
-0.3032,0.093,0.968,-3.1756,8.5725,-3.4427,0,0,0
-0.3074,0.1011,0.9651,-2.7176,7.5878,-2.4885,0,0,0
-0.3057,0.1091,0.9651,-2.7099,6.8473,-2.0611,0,0,0
-0.3105,0.1006,0.9509,-1.3588,5.8321,-1.9618,0,0,0
-0.3049,0.0972,0.958,0.9237,5.2061,-1.9313,0,0,0
-0.3103,0.1125,0.9631,2.5496,4.8855,-2.5496,0,0,0
-0.3159,0.1279,0.9629,1.4122,4.3053,-3.3359,0,0,0
-0.3223,0.1287,0.9575,0.0611,3.5573,-3.6183,0,0,0
-0.3193,0.1189,0.9604,-0.3435,4.0076,-4.1908,0,0,0
-0.3201,0.1223,0.9634,0.687,3.3359,-4.9771,0,0,0
-0.3201,0.1277,0.9607,0.1756,2.9542,-5.6947,0,0,0
-0.3201,0.1238,0.9558,-0.8779,2.0153,-5.0534,0,0,0
-0.3235,0.1089,0.9534,-3.4962,1.2748,-4.1756,0,0,0
-0.324,0.0933,0.9563,-3.3817,-0.3893,-2.9008,0,0,0
-0.3066,0.0898,0.9648,-1.2061,-0.9008,-2.3969,0,0,0
-0.3047,0.1057,0.9858,0.6641,-0.0687,-2.8321,0,0,0
-0.3022,0.1106,0.989,0.9466,1.6718,-3.0153,0,0,0
-0.3174,0.0967,0.9885,1.5267,2.8702,-3.1908,0,0,0
-0.3342,0.1006,0.97,3.6489,2.4275,-2.4504,0,0,0
-0.3362,0.1201,0.9666,3.4809,1.3206,-2.4885,0,0,0
-0.3335,0.1309,0.9668,3.4122,0.7328,-3.0382,0,0,0
-0.3267,0.1375,0.9626,2.4046,0.5344,-4.8092,0,0,0
-0.3286,0.1458,0.9656,0.5725,0.3588,-6.2595,0,0,0
-0.3335,0.1248,0.9626,-1.7252,-0.4427,-6.7099,0,0,0
-0.3313,0.1138,0.9622,-2.1298,-1.5115,-5.8931,0,0,0
-0.314,0.1113,0.9739,-3.5725,-1.1527,-4.1069,0,0,0
-0.3098,0.0959,0.9783,-3.4885,0.2748,-2.8244,0,0,0
-0.3169,0.0991,0.9746,-2.5725,0.7099,-1.3359,0,0,0
-0.3186,0.1121,0.9641,-3.4733,0.6336,-1.1985,0,0,0
-0.3286,0.0906,0.97,-3.6412,-0.2366,-1.0076,0,0,0
-0.3115,0.0837,0.9751,0.6031,-0.7405,-1.0687,0,0,0
-0.3069,0.1055,0.9773,3.2214,0.4733,-1.5115,0,0,0
-0.3164,0.123,0.9651,3.9695,0.8244,-2.4885,0,0,0
-0.3225,0.1255,0.9609,2.0382,0.313,-3.3282,0,0,0
-0.324,0.115,0.9531,0.7099,-0.542,-4.5573,0,0,0
-0.3254,0.1157,0.9604,-1.0382,-1.3206,-4.4198,0,0,0
-0.3171,0.1023,0.9685,-2.0382,-1.5496,-4.1527,0,0,0
-0.3145,0.0942,0.9851,0.8321,-0.5496,-4.3053,0,0,0
-0.3154,0.1062,0.9771,1.8702,0.7099,-4.0153,0,0,0
-0.3218,0.0967,0.9719,2.0076,0.8244,-3.4656,0,0,0
-0.3228,0.1038,0.9609,1.6641,0.1069,-1.1756,0,0,0
-0.3154,0.1143,0.9585,-0.9847,0.3969,0.3969,0,0,0
-0.3198,0.127,0.9536,-2.9924,-0.3282,0.4351,0,0,0
-0.3196,0.1296,0.968,-4.2366,-0.6947,-1.229,0,0,0
-0.3162,0.1174,0.9695,-3.4046,-0.5878,-2.687,0,0,0
-0.3262,0.1028,0.9641,-2.2748,-0.7557,-2.0687,0,0,0
-0.3171,0.0742,0.967,0.7634,-1.0382,-0.5725,0,0,0
-0.3237,0.1042,0.9739,3.0687,-0.3511,0.1221,0,0,0
-0.3201,0.1296,0.9709,2.7023,0.1908,0.5802,0,0,0
-0.321,0.1465,0.9675,0.771,-0.0916,-0.9695,0,0,0
-0.3223,0.1367,0.9687,-1.6794,-0.4198,-1.9618,0,0,0
-0.3206,0.1248,0.9609,-3.5267,-1.1756,-2.7176,0,0,0
-0.3269,0.1082,0.9634,-4.4198,-1.1298,-2.8702,0,0,0
-0.3281,0.0916,0.9695,-3.1985,-1.4885,-2.3817,0,0,0
-0.3181,0.0896,0.9775,-0.3664,-1.4046,-0.855,0,0,0
-0.311,0.1016,0.9834,2.2748,0.3511,-0.3969,0,0,0
-0.3228,0.1316,0.9792,2.5878,1.0382,-1.4427,0,0,0
-0.3313,0.1348,0.9722,1.374,0.916,-2.5878,0,0,0
-0.3352,0.1345,0.9568,-0.7863,-0.1756,-3.8092,0,0,0
-0.3313,0.1272,0.96,-2.6031,-1.145,-4.8015,0,0,0
-0.3191,0.1077,0.9592,-4.5115,-1.2824,-4.5267,0,0,0
-0.3142,0.0774,0.9741,-2.6336,-0.1145,-4.1221,0,0,0
-0.3167,0.0916,0.9751,0.6718,1.0382,-3.0076,0,0,0
-0.3167,0.1104,0.9675,2.4275,1.313,-2.0916,0,0,0
-0.321,0.1191,0.96,2.2443,1.229,-2.313,0,0,0
-0.3323,0.1152,0.9565,1.7176,0.8702,-2.9084,0,0,0
-0.3237,0.1348,0.9714,-0.4427,-0.1374,-2.3893,1,0,0
-0.3296,0.1357,0.9709,-2.0076,-0.542,-2.4656,1,0,0
-0.3303,0.1125,0.9717,-2.4733,-0.8931,-3.4122,1,0,0
-0.3262,0.1152,0.9695,-1.8779,-0.7023,-3.6565,1,0,0
-0.3223,0.1152,0.9749,-2.8626,-1.2061,-3.0305,1,0,0
-0.3125,0.1174,0.9678,-4.4046,-0.855,-2.9313,1,0,0
-0.3225,0.1235,0.9624,-6.8626,-1.2519,-2.855,1,0,0
-0.3296,0.1216,0.9775,-9.9847,-1.771,-2.542,1,0,0
-0.3135,0.1079,0.9883,-12.1374,-1.6947,-2.3206,1,0,0
-0.3191,0.0828,0.9858,-10.0458,-1.4733,-0.374,1,0,0
-0.3064,0.0654,0.9746,-5.2519,-0.2595,0.9695,1,0,0
-0.3206,0.072,0.9543,-0.5267,0.0763,2.9466,1,0,0
-0.3335,0.1125,0.947,0.5496,-0.626,3.2519,1,0,0
-0.3215,0.1147,0.9509,-1.5191,-1.3969,3.0229,1,0,0
-0.3225,0.1187,0.9734,-2.5725,-1.313,2.0611,1,0,0
-0.3159,0.1296,0.9829,-3.687,-0.6794,1.7557,1,0,0
-0.3254,0.1165,0.9773,-3.9237,0.0076,1.0229,1,0,0
-0.3262,0.1165,0.9661,-2.9084,0.3053,0.458,1,0,0
-0.3232,0.1035,0.9622,-2.4809,-0.3664,-0.1374,1,0,0
-0.3296,0.0979,0.958,-0.6412,-0.5038,-0.2214,1,0,0
-0.324,0.1213,0.9519,0.313,-1.0458,-0.2977,0,0,0
-0.321,0.126,0.9553,-1.1756,-1.1221,-1.1908,0,0,0
-0.3164,0.1194,0.9714,-2.2443,-0.7252,-1.5496,0,0,0
-0.3208,0.116,0.978,-2.5344,0.4504,-0.916,0,0,0
-0.3279,0.1089,0.9785,-1.5725,0.5573,-0.9008,0,0,0
-0.3262,0.1169,0.9802,-1.2595,0.6947,-0.7023,0,0,0
-0.3257,0.1123,0.9724,-1.9466,0.0916,-1.6107,0,0,0
-0.3196,0.1123,0.9746,-1.8397,0.1756,-1.9695,0,0,0
-0.3264,0.1162,0.9685,-1.1603,0.6489,-2.7099,0,0,0
-0.3264,0.1353,0.9636,-2.1908,0.3588,-2.9237,0,0,0
-0.3311,0.124,0.967,-3.5038,0.8244,-3.2595,0,0,0
-0.3271,0.0967,0.9641,-1.3588,0.6718,-3.313,0,0,0
-0.3225,0.1079,0.97,1.4656,1.7328,-3.9389,0,0,0
-0.3281,0.1294,0.9575,1.2061,1.5573,-4.3817,0,0,0
-0.3364,0.1118,0.9663,-0.7786,1.1069,-5.3893,0,0,0
-0.3347,0.1294,0.9722,-1.4122,0.8092,-6.3817,0,0,0
-0.3359,0.1184,0.9587,-1.8092,-0.3511,-7.084,0,0,0
-0.3264,0.1084,0.949,-2.9008,-1.0382,-6.0534,0,0,0
-0.3203,0.1021,0.9685,-2.8092,-1.5649,-5.1756,0,0,0
-0.3252,0.0737,0.9641,-1.4809,-1.3588,-3.0687,0,0,0
-0.3213,0.0857,0.9578,0.4809,-1.7786,-1.0458,0,0,0
-0.314,0.1025,0.9629,0.3664,-1.6641,-0.1985,0,0,0
-0.3147,0.1038,0.9531,-0.9466,-1.6489,-0.0458,0,0,0
-0.313,0.0923,0.9663,-1.2137,-2.0076,0.3359,0,0,0
-0.3022,0.1055,0.9705,-1.4504,-0.9924,0.9924,0,0,0
-0.322,0.1008,0.967,-1.6183,-0.6565,1.8931,0,0,0
-0.3235,0.1008,0.9666,-1.1069,-0.9084,2.0687,0,0,0
-0.3276,0.1108,0.968,-1.2824,-1.5267,2.0,0,0,0
-0.3215,0.1147,0.9631,-2.2443,-1.9924,2.1832,0,0,0
-0.3167,0.115,0.958,-4.3511,-2.6031,2.1145,0,0,0
-0.3071,0.1021,0.9497,-5.8855,-2.9389,3.7328,0,0,0
-0.3103,0.0964,0.9512,-7.3511,-3.6412,5.1679,0,0,0
-0.3252,0.0823,0.9429,-7.4885,-4.3359,7.6489,0,0,0
-0.3293,0.082,0.9338,-9.8473,-6.3359,11.4885,0,0,0
-0.3191,0.0588,0.9531,-7.4046,-8.2595,13.4275,0,0,0
-0.3081,0.0979,0.969,-5.145,-8.3206,14.626,0,0,0
-0.3149,0.125,0.9705,-6.5802,-8.5649,15.4046,0,0,0
-0.2927,0.1174,0.9995,-6.5038,-7.4351,14.0763,0,0,0
-0.2981,0.1194,1.002,-1.8779,-5.5878,8.5267,0,0,0
-0.3093,0.1658,1.0044,-0.2061,-3.7557,4.5038,0,0,0
-0.323,0.1572,0.9861,-0.9924,-2.9771,1.0382,0,0,0
-0.3215,0.1418,0.9858,-0.9466,-2.7328,-1.6565,0,0,0
-0.3184,0.1384,0.9905,-0.4733,-2.0076,-3.771,0,0,0
-0.3164,0.1367,0.9834,-1.8397,-0.9008,-4.5496,0,0,0
-0.3123,0.0935,0.9866,-0.687,-0.2443,-4.8702,0,0,0
-0.3125,0.1021,0.9883,0.6412,0.0229,-4.4733,0,0,0
-0.3208,0.0952,0.9788,2.9924,-0.2443,-4.8626,0,0,0
-0.3125,0.1125,0.9775,5.0153,0.0611,-5.5038,0,0,0
-0.3164,0.1245,0.9829,4.1298,0.5496,-6.6794,0,0,0
-0.3098,0.134,0.9895,0.4809,1.1603,-6.8931,0,0,0
-0.3162,0.1064,0.9822,-3.5344,1.771,-6.0992,0,0,0
-0.3157,0.0701,0.9929,-0.9466,2.3359,-6.4046,0,0,0
-0.3066,0.0854,1.01,5.5725,3.9924,-7.6107,0,0,0
-0.3135,0.116,1.0112,8.8855,5.5267,-9.3511,0,0,0
-0.3235,0.1321,0.9885,7.084,6.2672,-10.0,0,0,0
-0.3667,0.0896,0.96,5.5115,6.1221,-10.0916,0,0,0
-0.333,0.1067,0.9636,1.9695,4.4122,-7.4962,0,0,0
-0.3301,0.1194,0.9612,-1.5878,2.9237,-6.3817,0,0,0
-0.3262,0.1003,0.9648,-2.6183,1.8931,-4.8015,0,0,0
-0.3181,0.0837,0.9749,1.1908,2.5573,-4.9084,0,0,0
-0.3193,0.1135,0.9746,3.084,2.8321,-4.374,0,0,0
-0.3184,0.1169,0.9719,1.3435,2.7634,-3.3588,0,0,0
-0.3135,0.1089,0.9761,-0.2214,3.313,-2.1374,0,0,0
-0.3149,0.1226,0.9727,-1.5649,3.7863,-1.9847,0,0,0
-0.3372,0.1306,0.9485,-3.7252,2.8321,-2.0229,0,0,0
-0.3379,0.1091,0.9395,-4.8626,0.5649,-1.5267,0,0,0
-0.3276,0.0798,0.9509,-3.3588,-1.1756,0.0,0,0,0
-0.3074,0.0862,0.9683,-0.1145,-1.0,1.4733,0,0,0
-0.3015,0.1138,0.9795,0.916,0.5954,1.9008,0,0,0
-0.312,0.1353,0.967,-0.2977,1.0916,1.6489,0,0,0
-0.3132,0.1348,0.958,-2.3053,0.9542,0.7252,0,0,0
-0.321,0.1228,0.9514,-3.3435,-0.0229,0.084,0,0,0
-0.3198,0.1094,0.9597,-3.7863,-0.0916,0.3282,0,0,0
-0.3145,0.1125,0.9695,-3.2901,0.1374,0.4427,0,0,0
-0.3223,0.1111,0.9653,-2.771,0.2977,0.3282,0,0,0
-0.3198,0.1116,0.9639,-2.0611,0.0534,0.8168,0,0,0
-0.3201,0.1145,0.9651,-1.4122,0.0687,0.4275,0,0,0
-0.3252,0.1245,0.9561,-0.9237,0.1603,0.2366,0,0,0
-0.3274,0.1304,0.9624,-1.084,-0.1527,-0.1756,0,0,0
-0.3247,0.1313,0.9663,-1.9084,-0.542,-1.5954,0,0,0
-0.3135,0.1064,0.9802,-2.3206,0.0611,-1.2519,0,0,0
-0.3196,0.0908,0.9771,-0.7023,1.2977,-0.6107,0,0,0
-0.3254,0.1074,0.9744,-0.1069,2.0,0.2214,0,0,0
-0.3281,0.115,0.9646,0.2672,2.4733,-0.0611,0,0,0
-0.334,0.1465,0.9663,-1.1908,2.1298,-1.4198,0,0,0
-0.3462,0.1384,0.9697,-2.0305,1.9771,-4.2748,0,0,0
-0.3467,0.1521,0.9697,-4.2595,1.2214,-6.0611,0,0,0
-0.3533,0.1082,0.97,-2.916,0.1374,-6.7481,0,0,0
-0.3325,0.0986,0.9607,-1.6412,0.229,-5.8855,0,0,0
-0.3311,0.0791,0.9478,-0.8244,0.0992,-4.6794,0,0,0
-0.3162,0.084,0.9497,1.3359,-1.1221,-2.7023,0,0,0
-0.2871,0.0168,0.9419,7.7939,-0.4275,-3.7634,1,0,0
-0.3167,0.1667,0.9734,2.8855,1.4809,-3.0992,1,0,0
-0.3381,0.1116,0.9705,-0.3817,-0.3969,-2.3969,1,0,0
-0.3108,0.1118,0.9839,0.0916,0.4733,-1.6031,1,0,0
-0.3311,0.1584,0.9705,-2.3588,0.5267,-2.145,1,0,0
-0.3262,0.1436,0.9636,-6.313,-0.7099,-2.8473,1,0,0
-0.3186,0.1235,0.9583,-7.8397,-0.9008,-2.2748,1,0,0
-0.3264,0.113,0.9568,-9.2824,-1.8626,-1.3817,1,0,0
-0.3274,0.0991,0.9604,-10.1679,-2.855,0.2901,1,0,0
-0.322,0.0857,0.9517,-9.7634,-3.4198,1.9618,1,0,0
-0.3257,0.0818,0.9678,-6.542,-3.3206,2.8397,1,0,0
-0.3181,0.0964,0.9514,-2.7099,-2.7786,2.6107,1,0,0
-0.3127,0.0825,0.9426,-1.0076,-2.7023,4.1756,1,0,0
-0.3176,0.1194,0.9785,-0.916,-1.7939,3.1221,1,0,0
-0.3225,0.1277,0.9771,-1.6336,-1.2672,1.6107,1,0,0
-0.3296,0.1233,0.9707,-3.1908,-1.0763,0.916,1,0,0
-0.3242,0.1086,0.9714,-3.5267,-1.8092,0.3588,1,0,0
-0.3181,0.1016,0.9746,-2.9924,-1.7023,0.0763,1,0,0
-0.3206,0.1147,0.9729,-3.229,-1.5649,0.229,1,0,0
-0.3308,0.1084,0.9751,-4.4809,-1.6183,0.1679,1,0,0
-0.3208,0.1038,0.9885,-3.4809,-0.771,-0.084,1,0,0
-0.3174,0.1113,0.9658,-1.8015,-0.5038,-0.2824,0,0,0
-0.3335,0.1101,0.9644,-1.8473,-0.6183,-0.1145,0,0,0
-0.3303,0.0847,0.9758,0.2824,-0.7176,0.7099,0,0,0
-0.323,0.1101,0.9819,1.458,-0.5344,1.2519,0,0,0
-0.3306,0.1255,0.9697,-0.0076,-0.5267,1.1832,0,0,0
-0.334,0.1313,0.9585,-1.626,-1.4656,0.3435,0,0,0
-0.3416,0.1257,0.9585,-3.3359,-3.0382,-0.4198,0,0,0
-0.3164,0.1091,0.9761,-3.0916,-3.0687,-0.4275,0,0,0
-0.3054,0.1121,0.9978,-1.5649,-0.3511,-1.0992,0,0,0
-0.3301,0.1289,0.9717,-1.084,0.7634,-1.771,0,0,0
-0.3442,0.1189,0.9604,-1.5649,-0.458,-2.3282,0,0,0
-0.3286,0.1045,0.9736,-1.5573,-1.0687,-1.3282,0,0,0
-0.3113,0.0918,0.9814,-1.2137,0.4656,-0.4809,0,0,0
-0.3152,0.1016,0.9812,-0.8702,1.4122,0.4122,0,0,0
-0.3335,0.1213,0.9844,-1.2595,1.3053,0.1374,0,0,0
-0.3381,0.1252,0.9761,-1.7634,0.4504,-0.5725,0,0,0
-0.3389,0.1199,0.9597,-2.1908,-0.6947,-1.8702,0,0,0
-0.333,0.123,0.959,-3.2672,-1.4885,-2.5573,0,0,0
-0.3269,0.1094,0.9624,-4.3435,-1.9618,-2.7252,0,0,0
-0.3237,0.0908,0.9758,-4.9084,-1.9084,-1.8931,0,0,0
-0.3096,0.0786,0.9805,-3.6336,-0.9695,0.1603,0,0,0
-0.313,0.0808,0.9839,-2.5115,0.2595,1.542,0,0,0
-0.3203,0.095,0.9756,-2.374,1.2901,2.374,0,0,0
-0.3264,0.0945,0.9714,-1.0611,0.5649,2.2824,0,0,0
-0.3262,0.1099,0.9661,-1.5115,0.1145,3.1374,0,0,0
-0.3218,0.114,0.9717,-2.1603,-0.2824,3.3053,0,0,0
-0.3171,0.113,0.9641,-2.5191,-0.1145,3.8244,0,0,0
-0.3245,0.1094,0.9653,-2.4504,-0.2672,4.0153,0,0,0
-0.3315,0.1113,0.9509,-2.3206,-1.3053,4.9313,0,0,0
-0.3308,0.1084,0.9424,-2.9542,-2.7481,6.458,0,0,0
-0.3347,0.0984,0.9365,-5.1756,-5.1985,9.9542,0,0,0
-0.3276,0.1125,0.9343,-9.9924,-7.4809,16.0229,0,0,0
-0.3352,0.0945,0.9272,-14.8931,-10.7023,22.2061,0,0,0
-0.2642,0.092,0.9492,-10.4809,-12.7786,21.4809,0,0,0
-0.2688,0.188,0.9985,-2.771,-10.2824,16.0229,0,0,0
-0.2883,0.1516,0.9949,-1.5115,-6.3664,9.2443,0,0,0
-0.3118,0.1396,0.9873,-1.9084,-5.0305,6.9542,0,0,0
-0.3081,0.1299,0.9883,-1.8321,-4.0687,5.084,0,0,0
-0.2815,0.1221,1.0,0.687,-1.0992,2.9771,0,0,0
-0.3059,0.1533,0.9956,3.0916,0.9618,-0.4809,0,0,0
-0.3259,0.1628,0.9805,2.0,0.7099,-2.8473,0,0,0
-0.3201,0.1282,0.9683,0.2748,-0.4733,-4.4275,0,0,0
-0.3054,0.1111,0.9741,0.6031,-0.9237,-4.9466,0,0,0
-0.3081,0.1133,0.9773,0.7405,0.0687,-6.2595,0,0,0
-0.3093,0.1155,0.9854,1.458,1.0534,-7.542,0,0,0
-0.3086,0.1108,0.9861,2.8168,1.8244,-8.1145,0,0,0
-0.3096,0.0913,0.9885,5.1603,2.9313,-7.5878,0,0,0
-0.3147,0.106,0.9834,7.7328,3.8779,-7.5725,0,0,0
-0.3252,0.1252,0.9783,6.1145,4.0,-7.5649,0,0,0
-0.3254,0.1235,0.9834,2.5115,3.687,-7.6794,0,0,0
-0.3208,0.1113,0.9758,-0.0382,2.6947,-8.2901,0,0,0
-0.3196,0.113,0.9775,-2.1603,2.4046,-8.3359,0,0,0
-0.3193,0.0801,0.9753,-1.7099,2.5115,-7.2443,0,0,0
-0.3145,0.0806,0.9778,0.5954,2.6183,-5.4427,0,0,0
-0.3206,0.0918,0.9812,0.9313,3.2595,-2.6489,0,0,0
-0.3135,0.1052,0.9834,1.2366,4.1298,-1.9389,0,0,0
-0.3093,0.116,0.9819,2.0534,5.0076,-2.8015,0,0,0
-0.3188,0.1389,0.9639,1.5496,5.5878,-4.1832,0,0,0
-0.3345,0.1282,0.9377,-1.0153,4.7634,-4.8855,0,0,0
-0.3347,0.1089,0.9399,-2.6641,2.7099,-3.5725,0,0,0
-0.3264,0.0962,0.9675,-1.4046,1.4656,-3.0916,0,0,0
-0.3125,0.1306,0.9683,-0.1374,2.1221,-2.916,0,0,0
-0.322,0.1294,0.9702,-2.3053,2.6336,-2.4962,0,0,0
-0.3269,0.1128,0.9697,-2.9389,2.2061,-2.5725,0,0,0
-0.3267,0.1184,0.9612,-2.2443,1.7786,-2.9237,0,0,0
-0.3293,0.1118,0.9534,-1.1527,1.229,-3.1069,0,0,0
-0.3369,0.1155,0.9514,-0.3359,0.1374,-2.7481,0,0,0
-0.3318,0.1147,0.9678,-0.374,-0.374,-1.771,0,0,0
-0.3157,0.1213,0.9807,-0.8931,0.0229,-0.2824,0,0,0
-0.3086,0.1265,0.9756,-0.6183,0.8015,-1.1985,0,0,0
-0.3167,0.1345,0.978,-2.0611,1.4122,-2.4885,0,0,0
-0.323,0.1204,0.9827,-3.229,1.6336,-3.4427,0,0,0
-0.3215,0.1108,0.981,-3.4809,1.5725,-3.3359,0,0,0
-0.3191,0.1045,0.979,-2.1069,2.7023,-2.8855,0,0,0
-0.3228,0.1082,0.9868,0.5496,4.1908,-2.5115,0,0,0
-0.3279,0.1448,0.9749,1.0763,5.687,-3.4351,0,0,0
-0.3406,0.1387,0.9514,-0.0992,5.3969,-4.3969,0,0,0
-0.3413,0.1228,0.9443,-1.9924,3.0,-4.8015,0,0,0
-0.3237,0.0947,0.9583,-1.9847,2.1145,-3.5878,0,0,0
-0.3262,0.0962,0.96,-0.2824,3.1985,-3.3206,0,0,0
-0.3381,0.1089,0.9678,0.3053,3.2061,-2.2824,0,0,0
-0.3442,0.1152,0.9602,0.1374,2.5649,-1.626,0,0,0
-0.334,0.1169,0.9626,0.5038,2.1145,-0.5725,0,0,0
-0.3325,0.1267,0.9592,-0.6412,1.626,-1.1527,0,0,0
-0.3306,0.1248,0.9512,-0.8473,1.0916,-2.4809,0,0,0
-0.3398,0.1277,0.9485,-1.5878,0.6489,-3.3511,0,0,0
-0.3379,0.1082,0.9392,-1.4275,-0.2061,-3.6336,0,0,0
-0.3369,0.0977,0.9543,-1.229,-0.2824,-2.374,0,0,0
-0.332,0.0952,0.9539,-0.7328,0.1908,-0.7099,0,0,0
-0.333,0.105,0.9583,0.1603,0.1145,0.3359,0,0,0
-0.333,0.1331,0.9624,-0.6336,0.4122,-0.4733,0,0,0
-0.3389,0.1128,0.9631,-2.0534,-0.458,-1.1985,0,0,0
-0.334,0.1086,0.9741,-2.6336,-0.5954,-1.0687,0,0,0
-0.3325,0.092,0.9783,-1.9847,-0.0534,-0.9008,0,0,0
-0.3362,0.1038,0.9805,0.0229,0.7405,-0.9466,0,0,0
-0.3279,0.114,0.989,1.8092,2.6489,-1.4962,0,0,0
-0.3364,0.1331,0.9841,1.8092,3.8397,-2.5191,0,0,0
-0.335,0.1406,0.9739,-0.2748,4.542,-3.6794,0,0,0
-0.3523,0.1106,0.9585,-2.6947,5.0153,-3.8702,0,0,0
-0.3538,0.1006,0.9519,-2.8321,3.9771,-2.6336,0,0,0
-0.3535,0.1011,0.9526,-2.1603,2.4733,-2.8702,0,0,0
-0.3438,0.1179,0.9526,-1.5267,2.0229,-2.6412,0,0,0
-0.3433,0.1218,0.9607,-1.4275,1.855,-3.3282,0,0,0
-0.3438,0.1216,0.9705,-1.7099,2.4885,-3.1374,0,0,0
-0.3511,0.1201,0.9607,-2.0382,2.5954,-2.1069,0,0,0
-0.3518,0.1187,0.9531,-1.6489,1.5115,-1.2901,0,0,0
-0.3394,0.1252,0.9565,-0.687,1.6336,-2.2061,0,0,0
-0.3469,0.1394,0.9636,-0.6947,1.7786,-3.5496,0,0,0
-0.3445,0.1399,0.9631,-2.2595,2.084,-4.1985,0,0,0
-0.3425,0.1118,0.9714,-1.9847,2.6641,-3.9313,0,0,0
-0.3342,0.1106,0.9719,-1.6947,3.3359,-3.5878,0,0,0
-0.3389,0.106,0.9795,-1.3053,4.5267,-3.1145,0,0,0
-0.3242,0.1018,0.9885,2.1221,6.313,-4.5725,0,0,0
-0.3354,0.1238,0.9844,5.2061,9.3206,-6.6183,0,0,0
-0.3552,0.1394,0.9712,4.2214,11.1603,-8.2519,0,0,0
-0.3684,0.1235,0.9629,2.0305,12.0153,-7.5115,0,0,0
-0.3535,0.1157,0.9597,2.1527,10.6641,-7.2672,0,0,0
-0.3823,0.124,0.9268,0.9389,9.1374,-6.4122,0,0,0
-0.3794,0.1252,0.9309,-0.2977,5.6031,-6.1298,0,0,0
-0.0625,0.2466,0.8943,-7.1221,5.5344,-10.374,0,0,0
-0.4292,0.033,0.9475,1.4656,7.9466,-9.2366,0,0,0
-0.3108,0.1077,0.9661,2.7863,9.3817,-4.1145,0,0,0
-0.3728,0.157,0.9258,-0.5725,7.4198,-2.1679,0,0,0
-0.3735,0.1316,0.9229,-5.9237,6.2137,-4.3282,0,0,0
-0.3801,0.0996,0.9136,-5.7863,3.5573,-4.4962,0,0,0
-0.377,0.0698,0.9158,-1.8168,1.458,-3.3817,0,0,0
-0.3762,0.0994,0.9136,0.5038,-0.6336,-0.9618,0,0,0
-0.3569,0.1238,0.9312,-0.1145,-2.5802,-1.5191,0,0,0
-0.3464,0.1289,0.9458,-0.7023,-2.0611,-2.3053,0,0,0
-0.3518,0.1211,0.9492,-2.0229,-1.4198,-2.1603,0,0,0
-0.3503,0.1082,0.9521,-2.313,-0.7481,-1.0687,0,0,0
-0.3591,0.0972,0.9419,-1.3511,-0.9542,-0.2901,0,0,0
-0.3579,0.1157,0.9387,-2.229,-1.6031,0.4351,0,0,0
-0.3467,0.1211,0.9453,-3.8321,-2.4427,-0.0153,0,0,0
-0.3479,0.114,0.9519,-3.9389,-1.542,-1.0992,0,0,0
-0.3538,0.116,0.9478,-2.9313,-0.687,-0.9618,0,0,0
-0.3635,0.1111,0.9453,-1.5725,-0.3588,-1.6183,0,0,0
-0.373,0.1155,0.9414,-0.9084,-1.2443,-1.0534,0,0,0
-0.3601,0.1064,0.9434,-1.2901,-1.8931,-0.5344,0,0,0
-0.3606,0.1216,0.948,-1.6565,-1.9084,0.0534,0,0,0
-0.3733,0.1255,0.9526,-2.5725,-1.7252,-0.5191,0,0,0
-0.3694,0.1304,0.9573,-3.916,-1.5115,-1.4962,0,0,0
-0.373,0.1118,0.9517,-4.0229,-1.7023,-2.1374,0,0,0
-0.3684,0.1079,0.9597,-2.855,-1.8931,-1.6412,0,0,0
-0.3628,0.0974,0.9658,-1.0687,-0.8855,-1.0763,0,0,0
-0.3635,0.1121,0.9634,-0.0229,-0.0076,-1.3435,0,0,0
-0.3726,0.116,0.9592,-0.626,0.2061,-1.0076,0,0,0
-0.3765,0.1208,0.9607,-1.2672,-0.0763,-0.542,0,0,0
-0.3716,0.1194,0.9519,-1.855,-0.4885,-0.626,0,0,0
-0.3799,0.1289,0.9534,-3.1298,-0.771,-1.4656,0,0,0
-0.3755,0.1177,0.969,-3.1756,-0.6183,-2.2595,0,0,0
-0.3704,0.1008,0.9595,-2.1679,0.2214,-2.7328,0,0,0
-0.3689,0.1086,0.9548,-1.8702,0.6107,-2.3664,0,0,0
-0.3604,0.1123,0.9558,-2.9542,0.687,-1.5115,0,0,0
-0.3716,0.0945,0.9468,-2.542,0.7405,-1.1603,0,0,0
-0.3635,0.0986,0.9392,-0.7863,-0.0153,-0.8397,0,0,0
-0.3557,0.1123,0.9377,-0.9084,-0.6107,0.1069,0,0,0
-0.3643,0.1072,0.9451,-1.4427,-0.4962,0.145,0,0,0
-0.3538,0.1179,0.948,-1.8015,-0.5725,0.5802,0,0,0
-0.3618,0.1086,0.9487,-2.3893,-0.5191,0.9389,0,0,0
-0.364,0.1128,0.957,-1.916,-0.6794,1.1374,0,0,0
-0.3645,0.1147,0.958,-2.2901,-0.7634,1.4733,0,0,0
-0.376,0.1113,0.9475,-1.7176,-0.4198,0.4122,0,0,0
-0.3743,0.1169,0.9502,-1.5573,-1.0076,-0.4504,0,0,0
-0.3623,0.1189,0.9651,-2.1832,-0.542,-0.5267,0,0,0
-0.3594,0.1001,0.9619,-0.2519,0.0382,-0.1527,0,0,0
-0.366,0.1194,0.9604,0.7481,0.5573,0.1985,0,0,0
-0.364,0.1267,0.96,-1.1985,0.5191,-0.4656,0,0,0
-0.366,0.1252,0.9561,-1.7099,0.8626,-1.8779,0,0,0
-0.3669,0.1272,0.9541,-2.5038,0.3511,-2.855,0,0,0
-0.3601,0.1206,0.958,-2.7557,0.2901,-2.4198,0,0,0
-0.3579,0.1111,0.9541,-1.6565,0.5191,-2.0458,0,0,0
-0.3584,0.1008,0.9417,-0.2366,0.4809,-0.8015,0,0,0
-0.3596,0.1199,0.9312,-0.3817,-0.1298,-0.6489,0,0,0
-0.3555,0.1235,0.9287,-2.2366,-0.8321,-0.0763,1,0,0
-0.3616,0.1079,0.9414,-2.1832,-1.1679,-0.8168,1,0,0
-0.3569,0.1277,0.9443,-0.8092,-0.9924,-1.6107,1,0,0
-0.3589,0.1443,0.9609,-1.8015,-0.4427,-1.2137,1,0,0
-0.3667,0.1392,0.9573,-2.6031,-0.5802,-1.7939,1,0,0
-0.3616,0.1262,0.9463,-2.6565,-1.0763,-1.8931,1,0,0
-0.3635,0.1313,0.9443,-3.7405,-1.5573,-2.374,1,0,0
-0.3604,0.1118,0.936,-5.6336,-2.5267,-1.9389,1,0,0
-0.3613,0.1052,0.9385,-5.6641,-3.542,-0.2672,1,0,0
-0.3616,0.1147,0.936,-5.6412,-3.9084,0.6489,1,0,0
-0.356,0.1018,0.9397,-4.5878,-3.5878,0.8092,1,0,0
-0.3611,0.1099,0.9612,-2.7786,-3.0763,0.6183,1,0,0
-0.3552,0.1035,0.9719,-0.6641,-1.626,0.6794,1,0,0
-0.3716,0.1047,0.958,0.6565,-0.4427,0.5115,1,0,0
-0.3794,0.1245,0.9468,-0.1756,-1.4656,0.3893,1,0,0
-0.376,0.1294,0.9502,-1.6641,-2.0534,0.1221,1,0,0
-0.3762,0.114,0.9478,-2.3664,-2.2214,-0.9847,1,0,0
-0.3679,0.1082,0.9639,-1.5267,-2.3282,-0.7328,1,0,0
-0.3574,0.1177,0.97,-1.5802,-1.6947,-0.6183,1,0,0
-0.3701,0.1101,0.9675,-2.2977,-0.9389,-0.8321,1,0,0
-0.3694,0.0991,0.9602,-1.7863,-0.6718,-0.2672,1,0,0
-0.3665,0.1011,0.9592,-2.0611,-0.5802,0.7023,1,0,0
-0.3711,0.1006,0.9502,-1.4046,-0.2901,0.4275,1,0,0
-0.3694,0.1116,0.9561,-1.0687,-1.4733,-0.0992,0,0,0
-0.3701,0.1108,0.9558,-1.4962,-1.374,0.1527,0,0,0
-0.3647,0.1001,0.9648,-1.6412,-0.1603,0.1679,0,0,0
-0.3721,0.1089,0.9619,-1.2366,0.2061,0.2137,0,0,0
-0.3765,0.1179,0.9578,-1.5802,-0.4504,-0.0076,0,0,0
-0.3728,0.1069,0.9575,-0.6947,-0.9389,-0.0687,0,0,0
-0.3647,0.1218,0.9651,-0.3435,-0.8244,0.0,0,0,0
-0.3594,0.1306,0.9565,-2.9008,-0.5038,-0.2977,0,0,0
-0.3662,0.1104,0.9668,-4.6183,0.5191,-0.8015,0,0,0
-0.3625,0.1011,0.9634,-3.5496,0.5802,-1.0,0,0,0
-0.363,0.0999,0.9565,-2.7863,0.7023,-0.2824,0,0,0
-0.3594,0.0928,0.949,-0.9924,0.9618,0.4504,0,0,0
-0.3618,0.1096,0.9583,0.0763,1.084,0.3359,0,0,0
-0.3655,0.1282,0.949,-1.6336,0.2366,-0.1985,0,0,0
-0.3596,0.1213,0.9443,-3.1832,-0.4198,-0.9084,0,0,0
-0.3469,0.1204,0.9507,-3.1221,-0.1908,-1.5573,0,0,0
-0.356,0.1165,0.947,-3.9237,0.3893,-2.1985,0,0,0
-0.3601,0.0886,0.947,-2.9237,0.0,-1.6641,0,0,0
-0.3528,0.1001,0.9512,-1.0458,-0.084,-0.3817,0,0,0
-0.3538,0.1025,0.9485,-0.0305,-0.0153,0.0229,0,0,0
-0.3567,0.1155,0.9441,-0.2366,-0.7557,0.7328,0,0,0
-0.3523,0.1211,0.9487,-1.8779,-0.9771,0.6565,0,0,0
-0.355,0.116,0.9414,-3.1679,-1.1679,0.6489,0,0,0
-0.3657,0.1165,0.9329,-3.9618,-2.1298,0.916,0,0,0
-0.3572,0.0999,0.9463,-3.626,-2.9466,1.7328,0,0,0
-0.3459,0.0952,0.9463,-2.1298,-2.5802,2.8244,0,0,0
-0.3569,0.1064,0.9475,-0.8321,-2.4275,3.6641,0,0,0
-0.3564,0.1133,0.9414,-1.0305,-2.4351,4.626,0,0,0
-0.3647,0.1167,0.9351,-2.0382,-3.374,5.8168,0,0,0
-0.3623,0.1252,0.9329,-4.1145,-4.4046,7.2977,0,0,0
-0.3604,0.1204,0.9189,-8.0611,-6.1527,10.4962,0,0,0
-0.3701,0.1138,0.8945,-12.8397,-8.9924,14.6336,0,0,0
-0.3857,0.0977,0.906,-16.7786,-14.0305,22.2443,0,0,0
-0.3506,0.0632,0.9172,-20.374,-15.9389,28.8779,0,0,0
-0.3354,0.04,0.8982,-21.4351,-18.8702,34.084,0,0,0
-0.3359,0.0347,0.9241,-20.626,-22.313,36.3206,0,0,0
-0.3447,0.0818,0.9312,-23.6565,-23.7481,42.2977,0,0,0
-0.2852,0.2166,0.9663,-25.8244,-25.0534,48.6336,0,0,0
-0.3032,0.0352,0.9878,-25.2595,-22.0229,46.5267,0,0,0
-0.2961,0.0779,0.9851,-22.855,-23.855,47.313,0,0,0
-0.3076,0.1116,0.999,-22.8702,-24.8015,47.626,0,0,0
-0.2966,0.0854,1.0151,-24.3511,-22.1069,45.4351,0,0,0
-0.2961,0.1184,1.0203,-23.7786,-19.1832,41.2443,0,0,0
-0.3035,0.1299,1.0601,-24.7176,-16.084,37.7939,0,0,0
-0.2651,0.093,1.0217,-26.0992,-13.1145,36.1756,0,0,0
-0.2993,0.123,1.0251,-25.3817,-12.6718,32.5649,0,0,0
-0.2893,0.115,1.0249,-22.7023,-9.5191,27.2443,0,0,0
-0.3098,0.1191,1.0129,-22.7939,-9.0229,23.7023,0,0,0
-0.2708,0.1123,1.0129,-24.7252,-8.145,22.1374,0,0,0
-0.2981,0.0654,0.9973,-24.5038,-6.2061,20.542,0,0,0
-0.2917,0.0486,0.9814,-20.9237,-4.9771,18.8473,0,0,0
-0.2939,0.0576,0.9751,-18.0153,-4.7328,17.3359,0,0,0
-0.2971,0.0339,0.9751,-15.1832,-5.2595,17.5038,0,0,0
-0.2925,0.0596,1.0044,-13.3511,-3.9313,19.1908,0,0,0
-0.2837,0.0398,1.0115,-11.7099,-1.5191,20.6718,0,0,0
-0.2898,0.085,1.011,-11.2595,-0.8244,20.6489,0,0,0
-0.3005,0.0593,1.0056,-11.1985,-0.0534,19.1985,0,0,0
-0.293,0.0349,0.999,-9.626,0.8473,19.8931,0,0,0
-0.2937,0.061,1.0061,-7.3664,2.0458,19.2061,0,0,0
-0.2915,0.0964,1.0151,-7.1985,3.0382,17.1756,0,0,0
-0.2976,0.0913,1.0117,-8.3511,5.9618,14.2366,0,0,0
-0.3113,0.072,1.0017,-8.5802,7.1985,13.2137,0,0,0
-0.3179,0.0725,0.9868,-7.6947,6.771,12.3359,0,0,0
-0.3186,0.072,0.9858,-5.8092,5.9542,12.9313,0,0,0
-0.3013,0.1035,1.0054,-6.5802,6.5344,12.145,0,0,0
-0.2998,0.1155,1.0037,-10.7176,7.771,10.6489,0,0,0
-0.3049,0.0996,1.0034,-14.0076,8.6412,9.1221,0,0,0
-0.3125,0.0789,0.9824,-15.2824,9.2824,7.5267,0,0,0
-0.3215,0.053,0.968,-13.458,8.9466,6.1603,0,0,0
-0.3242,0.051,0.9548,-11.374,7.0687,5.8015,0,0,0
-0.3176,0.0549,0.9531,-10.9313,4.9008,6.7939,0,0,0
-0.3035,0.054,0.9695,-12.6107,4.0076,8.2824,0,0,0
-0.2979,0.0325,0.9712,-14.1145,3.5725,11.4809,0,0,0
-0.2854,0.0234,0.9814,-15.3588,3.7252,14.1069,0,0,0
-0.2949,0.0054,0.9661,-12.7481,5.1756,15.313,0,0,0
-0.3003,0.0076,0.9619,-8.4198,4.145,15.6565,0,0,0
-0.3008,0.0237,0.9631,-5.0229,2.7863,16.6794,0,0,0
-0.2949,0.0452,0.9558,-3.8473,1.8015,17.6183,0,0,0
-0.2961,0.0723,0.9639,-5.5649,0.145,17.9466,0,0,0
-0.2925,0.0688,0.9612,-6.1756,-0.0534,15.9924,0,0,0
-0.2827,0.0691,0.9678,-6.2824,-0.9466,14.3511,0,0,0
-0.281,0.0603,0.9705,-4.4275,0.0153,12.8855,0,0,0
-0.2842,0.0637,0.9717,-2.3893,0.0076,11.8244,0,0,0
-0.2769,0.0872,0.9641,-1.5344,0.2519,11.1069,0,0,0
-0.282,0.1108,0.9722,-2.4275,0.7786,9.7634,0,0,0
-0.2849,0.1121,0.9539,-2.3511,0.1756,7.3511,0,0,0
-0.2891,0.1233,0.9695,-2.4275,-0.145,5.3893,0,0,0
-0.2869,0.1255,0.9653,-2.7786,-0.0992,2.1985,0,0,0
-0.2886,0.123,0.9724,-4.2519,-0.2366,1.2977,0,0,0
-0.3013,0.1055,0.9575,-3.4962,-0.0916,-0.2748,0,0,0
-0.2964,0.0991,0.9531,-2.6947,-1.0534,-1.1756,0,0,0
-0.2871,0.1086,0.9709,-3.3664,-1.2366,-2.3359,0,0,0
-0.2903,0.0945,0.9827,-3.5954,-0.5725,-2.7176,0,0,0
-0.2922,0.0867,0.9919,-2.5878,-0.0153,-2.9695,1,0,0
-0.3015,0.0913,0.9758,-2.7557,-0.0458,-4.3664,1,0,0
-0.3,0.0977,0.9736,-3.855,-0.5191,-5.2214,1,0,0
-0.2969,0.0676,0.9722,-2.7023,-2.5725,-5.7328,1,0,0
-0.2874,0.0876,1.0071,-4.5725,-2.0534,-5.1374,1,0,0
-0.293,0.054,1.0005,-3.2748,-1.1374,-4.1374,1,0,0
-0.2893,0.0442,0.9956,-1.6031,-0.6565,-3.8473,1,0,0
-0.3081,0.0645,0.9988,0.3511,0.2137,-3.8931,1,0,0
-0.3218,0.0454,0.9861,2.145,-0.5573,-3.8321,1,0,0
-0.3157,0.0559,0.9854,3.916,-1.7634,-3.3817,1,0,0
-0.3069,0.0764,0.9875,3.8092,-2.1756,-3.1221,1,0,0
-0.2991,0.0803,1.002,3.0992,-2.1603,-3.1832,1,0,0
-0.2939,0.0854,1.0039,3.6031,-1.1679,-3.7863,1,0,0
-0.2932,0.0837,1.0017,4.5267,-0.2519,-5.4504,1,0,0
-0.3047,0.0918,0.9756,4.8931,-0.1603,-7.3359,1,0,0
-0.304,0.0776,0.959,4.4656,-0.9084,-8.6489,1,0,0
-0.3037,0.0674,0.9551,6.5878,-2.6412,-9.1756,1,0,0
-0.2957,0.0674,0.9587,11.7023,-3.8168,-10.9084,1,0,0
-0.2925,0.0911,0.938,15.3435,-4.0382,-12.8321,1,0,0
-0.2996,0.0828,0.9333,17.8397,-4.6412,-14.0229,1,0,0
-0.3181,0.0703,0.907,23.2366,-8.0763,-17.0382,1,0,0
-0.2925,0.0793,0.9167,28.7176,-10.9313,-19.2824,1,0,0
-0.2961,0.0876,0.9031,32.5115,-13.7939,-20.2824,1,0,0
-0.2788,0.1292,0.9265,32.0382,-16.5267,-21.3359,1,0,0
-0.2861,0.1089,0.9368,32.1221,-17.2137,-22.5649,1,0,0
-0.2766,0.1394,0.9463,31.7099,-17.1908,-25.1527,1,0,0
-0.2844,0.1313,0.9487,29.7939,-17.8855,-26.6412,1,0,0
-0.2844,0.1316,0.9573,27.2595,-18.7252,-26.4046,1,0,0
-0.2803,0.1284,0.9495,28.0305,-20.1374,-27.145,1,0,0
-0.2969,0.1221,0.9458,28.8626,-23.2977,-27.7863,1,0,0
-0.3306,0.1121,0.9014,30.3282,-29.0763,-28.0458,1,0,0
-0.2732,0.1372,0.9658,24.8855,-34.4504,-25.7176,1,0,0
-0.2212,0.1304,1.0256,16.0,-32.6183,-22.9084,1,0,0
-0.1963,0.1108,1.092,9.0916,-26.7481,-17.6031,1,0,0
-0.1948,0.0935,1.0974,6.1679,-17.7557,-14.1374,1,0,0
-0.2322,0.0781,1.0635,9.3664,-12.1527,-13.3359,1,0,0
-0.2625,0.0886,1.0398,14.8092,-11.2595,-13.8626,1,0,0
-0.2896,0.1001,1.0103,18.5573,-13.626,-16.0153,1,0,0
-0.2852,0.1018,0.9932,22.1679,-15.7863,-18.084,1,0,0
-0.2744,0.1172,0.9844,24.3511,-17.2977,-19.2595,1,0,0
-0.2644,0.1504,0.9897,19.4198,-18.5573,-15.7863,1,0,0
-0.2546,0.1287,1.0081,8.9389,-18.1679,-11.7099,1,0,0
-0.2175,0.1418,1.0354,1.7328,-18.1221,-8.6641,1,0,0
-0.2307,0.1016,1.0413,-0.8626,-14.3893,-8.8244,1,0,0
-0.2405,0.103,1.0317,2.542,-12.626,-8.2137,1,0,0
-0.248,0.0916,1.0078,7.855,-12.1298,-8.5878,1,0,0
-0.2407,0.1243,1.0134,13.3893,-12.3969,-7.2901,1,0,0
-0.2136,0.1548,1.0205,13.6107,-10.9389,-6.916,1,0,0
-0.2051,0.1746,1.0271,7.916,-7.2443,-5.0611,1,0,0
-0.2183,0.1702,1.0376,1.9237,-3.4275,-3.5954,1,0,0
-0.2139,0.1729,1.0425,-2.8473,-0.542,-4.6183,1,0,0
-0.2295,0.158,1.0242,-5.4885,1.3282,-6.0076,1,0,0
-0.2344,0.1533,1.0051,-6.3206,1.5573,-6.687,1,0,0
-0.2312,0.1484,1.0022,-7.9008,1.8931,-6.5954,1,0,0
-0.2344,0.1316,1.0002,-8.0992,1.6336,-6.3893,1,0,0
-0.228,0.1189,1.0132,-6.8015,2.1298,-5.2137,1,0,0
-0.2187,0.1455,1.0173,-8.9695,3.626,-4.7328,1,0,0
-0.2214,0.1516,1.0181,-14.145,4.8779,-4.2672,1,0,0
-0.2266,0.1543,1.0269,-19.8931,6.0153,-3.1756,1,0,0
-0.2295,0.1348,1.0308,-24.7786,8.0916,-2.7863,1,0,0
-0.2319,0.0864,1.0181,-25.7863,9.6947,-2.1985,1,0,0
-0.2444,0.0537,1.0288,-20.9084,10.6031,0.7863,1,0,0
-0.2366,0.04,1.0295,-15.1908,11.458,4.9847,1,0,0
-0.2322,0.0708,1.0334,-14.5115,12.9771,10.1221,1,0,0
-0.2144,0.1274,1.0259,-18.4046,14.3282,18.6183,0,0,0
-0.26,0.0676,0.9729,-22.1069,14.3435,22.4809,0,0,0
-0.2532,0.0581,0.9897,-25.9695,12.9618,25.3588,0,0,0
-0.2375,0.0818,0.9885,-28.4351,12.2901,26.7405,0,0,0
-0.2502,0.0872,0.9895,-30.5344,10.9466,28.0534,0,0,0
-0.2485,0.0935,0.9905,-32.5191,10.1679,29.5191,0,0,0
-0.2393,0.0564,0.9834,-32.3282,9.5115,28.5267,0,0,0
-0.2588,0.0945,1.0005,-32.7252,8.9008,29.9618,0,0,0
-0.2573,0.0898,1.0137,-32.5802,10.5115,29.5649,0,0,0
-0.25,0.0859,1.0193,-31.458,11.6794,28.5802,0,0,0
-0.2507,0.1143,1.019,-32.229,12.2824,28.2824,0,0,0
-0.2471,0.1042,1.011,-34.4962,13.2214,26.3893,0,0,0
-0.2622,0.0903,1.0027,-35.6336,13.9771,23.2214,0,0,0
-0.249,0.0994,1.0002,-34.374,14.4656,19.1985,0,0,0
-0.24,0.1333,1.0137,-38.5725,15.8321,15.9084,0,0,0
-0.2712,0.095,0.9939,-41.1221,17.1832,13.4733,0,0,0
-0.2393,0.1062,1.0154,-42.8702,19.1908,11.8931,0,0,0
-0.2537,0.0974,1.0171,-45.4504,22.1145,9.1374,0,0,0
-0.2676,0.0791,1.0037,-46.4351,23.7023,6.8702,0,0,0
-0.2896,0.062,0.9722,-44.1756,23.0763,4.7634,0,0,0
-0.291,0.0376,0.9592,-39.7405,22.6107,3.0076,0,0,0
-0.2864,0.0103,0.9639,-34.0687,21.6947,1.2519,0,0,0
-0.2722,-0.0022,0.9797,-30.5802,20.9924,3.2443,0,0,0
-0.2766,0.0049,0.9741,-28.0992,22.4656,5.5496,0,0,0
-0.2944,0.0061,0.9597,-25.7557,23.4427,6.4275,0,0,0
-0.3105,0.01,0.9468,-22.0992,22.4885,5.9695,0,0,0
-0.3154,0.0054,0.9448,-19.626,20.9313,5.8702,0,0,0
-0.3179,-0.0154,0.9436,-15.6412,20.2977,5.6489,0,0,0
-0.322,-0.0164,0.9443,-11.8015,19.3282,5.8702,0,0,0
-0.3264,-0.0134,0.9355,-8.687,18.4198,6.9466,0,0,0
-0.3364,0.0056,0.9399,-8.2443,16.2366,6.229,0,0,0
-0.3411,0.0166,0.9463,-9.5954,14.855,5.6183,0,0,0
-0.3401,-0.0029,0.9524,-9.9924,14.2748,4.1374,0,0,0
-0.3528,-0.0168,0.957,-6.2748,11.9084,3.3359,0,0,0
-0.3574,-0.0083,0.9585,-2.8321,10.1603,3.2061,0,0,0
-0.345,-0.0098,0.9705,-1.374,9.1908,3.3664,0,0,0
-0.3235,0.0063,0.9905,-1.9389,10.2824,3.7099,0,0,0
-0.3423,0.0071,0.9958,-2.7328,10.5496,3.5344,0,0,0
-0.354,0.01,0.988,-2.5496,10.771,1.7786,0,0,0
-0.3701,0.0015,0.9622,-1.8931,9.1298,0.5573,0,0,0
-0.365,-0.0049,0.9666,-1.4275,6.855,0.2366,0,0,0
-0.3464,-0.0125,0.9792,-2.5649,7.1756,1.084,0,0,0
-0.3313,0.0132,1.0093,-5.4504,8.5649,1.229,0,0,0
-0.3364,0.0056,1.01,-8.1985,11.6794,0.7099,0,0,0
-0.3457,-0.0029,0.9912,-9.3206,14.4733,-0.3206,0,0,0
-0.3623,-0.0154,0.9666,-8.9847,14.9313,-1.0153,0,0,0
-0.3806,-0.0369,0.9634,-7.9008,13.9389,-1.7023,0,0,0
-0.3779,-0.0356,0.9629,-8.1756,12.3359,-0.8092,0,0,0
-0.3765,-0.0435,0.9568,-9.2214,11.229,1.542,0,0,0
-0.3694,-0.0457,0.9521,-10.1756,10.6794,2.8321,0,0,0
-0.3728,-0.0396,0.9482,-10.687,10.0992,2.6489,0,0,0
-0.365,-0.0354,0.9495,-11.0687,9.4046,3.0611,0,0,0
-0.3599,-0.0574,0.9456,-9.6641,9.5649,4.3359,0,0,0
-0.3542,-0.0627,0.9556,-7.0763,10.2214,5.3893,0,0,0
-0.366,-0.0332,0.9534,-4.7176,11.6641,4.9847,0,0,0
-0.2905,-0.0129,0.9587,-4.8321,8.5344,3.8473,0,0,0
-0.4285,-0.0469,0.9338,-6.8473,12.8321,2.4885,0,0,0
-0.4004,-0.0146,0.9141,-7.1679,7.7328,3.7252,0,0,0
-0.4028,-0.0232,0.9155,-11.3282,6.374,3.7634,0,0,0
-0.387,-0.0554,0.9255,-10.8855,5.1221,4.8321,0,0,0
-0.3892,-0.0662,0.9258,-7.1985,5.0,5.0229,0,0,0
-0.3894,-0.0474,0.9443,-4.2595,4.7634,5.4962,0,0,0
-0.3867,-0.0247,0.9399,-4.0,4.6183,5.7099,0,0,0
-0.3774,-0.011,0.9524,-6.1145,5.0611,6.1221,0,0,0
-0.3757,0.0029,0.959,-8.8779,5.916,6.0153,0,0,0
-0.3967,-0.0015,0.9526,-10.1756,6.6641,4.4809,0,0,0
-0.3962,0.0039,0.9475,-10.6489,6.0687,2.3817,0,0,0
-0.4004,-0.0322,0.9478,-9.7023,5.2901,1.7023,0,0,0
-0.3943,-0.0342,0.9636,-9.0992,4.5954,2.6412,0,0,0
-0.3889,-0.0413,0.9658,-8.2748,5.0382,4.3511,0,0,0
-0.3779,-0.0259,0.9429,-8.0992,5.9466,5.0458,0,0,0
-0.3787,-0.0203,0.946,-9.0611,6.4427,4.7557,0,0,0
-0.3877,-0.0078,0.9299,-11.313,5.7176,3.9313,0,0,0
-0.387,-0.0237,0.9341,-11.9771,5.3817,3.084,0,0,0
-0.3887,-0.0417,0.9507,-10.0229,5.7023,2.229,0,0,0
-0.3848,-0.0608,0.9348,-6.6183,5.8855,2.6565,0,0,0
-0.385,-0.0566,0.9431,-3.2824,5.7252,4.0,0,0,0
-0.3867,-0.0381,0.9375,-0.3053,5.8015,4.5802,0,0,0
-0.4031,-0.021,0.9197,1.7634,5.0534,3.2595,1,0,0
-0.397,-0.0007,0.8906,1.9924,2.8855,2.1756,1,0,0
-0.3853,0.0068,0.9163,-0.7328,1.5954,-0.1069,1,0,0
-0.3879,0.0417,0.9121,-4.855,1.5649,-1.8779,1,0,0
-0.3887,-0.0015,0.9265,-9.2061,1.1756,-2.9695,1,0,0
-0.3872,-0.0208,0.9399,-8.6718,0.9466,-3.8092,1,0,0
-0.4004,-0.0374,0.9382,-6.5191,0.4046,-3.5573,1,0,0
-0.4028,-0.0544,0.9211,-4.6489,-1.0916,-2.4351,1,0,0
-0.3945,-0.0415,0.9253,-3.3053,-2.2595,-1.5115,1,0,0
-0.3933,-0.0427,0.9255,-2.4046,-3.3588,-1.2061,1,0,0
-0.3796,-0.0349,0.9385,-3.2366,-2.9618,-0.5725,1,0,0
-0.3943,-0.0361,0.9424,-2.9847,-2.0153,-0.5344,1,0,0
-0.4031,-0.0508,0.9395,-0.9542,-2.7939,-0.4885,1,0,0
-0.4033,-0.052,0.9299,1.8015,-2.7099,-0.1908,1,0,0
-0.4089,-0.041,0.9417,3.2061,-3.2366,-0.7481,1,0,0
-0.4038,-0.0298,0.949,1.9389,-3.3435,-0.5115,1,0,0
-0.3953,-0.0217,0.9426,0.7099,-3.0458,-1.2748,1,0,0
-0.4028,-0.0232,0.9324,-0.687,-3.4351,-2.0687,1,0,0
-0.406,-0.0278,0.9238,-1.8626,-4.2443,-3.5267,1,0,0
-0.4023,-0.0488,0.9214,-1.1298,-4.8779,-3.916,1,0,0
-0.3989,-0.0593,0.9341,0.7252,-5.3969,-3.4198,1,0,0
-0.4023,-0.0696,0.9248,4.1679,-5.6107,-2.4504,1,0,0
-0.4067,-0.0488,0.9221,7.2214,-6.6107,-2.2443,1,0,0
-0.4104,-0.0308,0.9102,9.9084,-7.9313,-3.3053,1,0,0
-0.4199,-0.0229,0.9041,11.229,-10.9618,-4.8168,1,0,0
-0.4219,-0.0283,0.9023,14.7634,-15.4656,-6.0763,1,0,0
-0.4097,-0.0266,0.8992,20.6641,-18.4733,-9.4885,1,0,0
-0.4329,-0.0313,0.8682,27.771,-22.9618,-12.7481,1,0,0
-0.4338,-0.0618,0.8379,41.6412,-30.229,-16.1679,1,0,0
-0.4138,-0.0466,0.8281,58.9542,-38.3817,-21.8015,1,0,0
-0.3547,0.0603,0.8997,65.4046,-44.4275,-22.8626,1,0,0
-0.3391,0.0581,0.9124,62.5267,-45.6489,-21.8092,1,0,0
-0.3271,0.0715,0.9353,57.1679,-46.2977,-20.9313,1,0,0
-0.3196,0.0964,0.9531,50.3206,-43.6718,-21.5344,1,0,0
-0.3157,0.104,0.9604,45.0611,-40.7252,-24.0305,1,0,0
-0.3176,0.061,0.9695,45.8321,-40.2519,-27.4275,1,0,0
-0.3318,0.0237,0.9927,56.1145,-38.9847,-33.0305,1,0,0
-0.321,0.0413,0.9355,73.7557,-40.7099,-41.9695,1,0,0
-0.4817,0.0715,0.8918,85.9008,-60.1527,-43.542,1,0,0
-0.2043,0.2266,1.0105,73.8702,-54.0611,-40.0534,1,0,0
-0.2612,0.1743,1.0403,46.4504,-51.4504,-29.0,1,0,0
-0.1809,0.1597,1.0852,27.4122,-45.145,-23.5954,1,0,0
-0.1702,0.0999,1.103,20.4046,-34.5115,-24.8855,1,0,0
-0.1772,0.0667,1.1055,22.8397,-21.8397,-29.0305,1,0,0
-0.2419,0.0422,1.0588,30.2901,-15.6489,-32.4733,1,0,0
-0.2754,0.0344,1.0286,40.313,-14.3817,-33.2901,1,0,0
-0.2834,0.0549,0.9973,45.8626,-16.3359,-28.6412,1,0,0
-0.2546,0.1152,1.0034,40.4504,-19.4122,-20.4504,1,0,0
-0.2373,0.1394,1.0388,26.3435,-17.7328,-12.9008,1,0,0
-0.2241,0.1416,1.053,11.6947,-12.8397,-10.2214,1,0,0
-0.2307,0.1104,1.0491,2.626,-7.4046,-10.542,1,0,0
-0.2402,0.0789,1.042,2.0305,-4.6183,-10.8931,1,0,0
-0.251,0.0879,1.0168,5.458,-3.8244,-8.916,1,0,0
-0.2566,0.0989,1.0076,9.7099,-4.4046,-7.1221,1,0,0
-0.2703,0.1182,0.9966,8.374,-5.0,-4.7405,1,0,0
-0.2637,0.1194,1.0005,6.2366,-5.145,-2.4198,1,0,0
-0.2581,0.1184,0.9937,3.8779,-4.2519,-1.1145,1,0,0
-0.25,0.1428,0.9946,-0.6565,-3.5573,0.5725,1,0,0
-0.26,0.1462,1.0073,-6.0,-2.1145,0.4656,1,0,0
-0.272,0.1377,1.0085,-8.1679,-2.0153,-0.7023,1,0,0
-0.2615,0.1443,1.0071,-9.8321,-1.5573,-1.0611,1,0,0
-0.2598,0.1506,1.0139,-11.6489,-0.5191,-1.3893,1,0,0
-0.269,0.1604,1.0129,-12.542,0.5267,-4.5344,1,0,0
-0.2534,0.1272,0.9839,-13.9466,-0.1603,-4.7786,1,0,0
-0.2642,0.1089,1.0024,-15.0611,-0.8015,-3.6718,1,0,0
-0.2559,0.1208,1.0149,-16.3359,-0.3969,-3.6031,1,0,0
-0.2476,0.1216,1.0251,-17.145,1.6107,-4.5115,1,0,0
-0.249,0.1128,1.0276,-19.0153,3.4733,-4.3969,1,0,0
-0.2576,0.093,1.0176,-18.6183,4.458,-3.4046,1,0,0
-0.2551,0.0771,1.0142,-16.2824,5.855,-1.3282,1,0,0
-0.2654,0.071,1.0088,-13.3664,5.2824,0.8092,1,0,0
-0.2473,0.0972,1.0027,-13.2595,6.458,3.1069,1,0,0
-0.2532,0.1038,1.0161,-15.6183,7.8626,3.4809,1,0,0
-0.2585,0.0969,1.0149,-16.9084,8.9313,4.9313,1,0,0
-0.2617,0.095,1.0122,-18.7481,10.3664,7.6412,0,0,0
-0.2761,0.0913,1.0002,-21.1221,9.3435,11.1985,0,0,0
-0.2734,0.0974,0.97,-25.9695,6.8321,16.5802,0,0,0
-0.2651,0.0903,0.9656,-34.2672,6.458,21.6794,0,0,0
-0.2644,0.0459,0.9863,-36.2595,5.4122,24.0916,0,0,0
-0.2749,0.0413,0.9824,-33.5344,5.4809,26.1679,0,0,0
-0.2605,0.0608,1.0103,-29.1527,5.5878,25.8168,0,0,0
-0.2615,0.0891,1.03,-25.5191,6.8397,25.6794,0,0,0
-0.26,0.0835,1.0151,-23.6794,7.8473,24.3053,0,0,0
-0.2598,0.0942,1.0095,-24.687,8.9237,22.9008,0,0,0
-0.2742,0.1086,0.988,-27.5114,10.0305,21.5878,0,0,0
-0.2732,0.0793,0.9807,-29.2061,9.6489,19.2595,0,0,0
-0.2961,0.0615,0.9658,-28.313,6.2672,16.7634,0,0,0
-0.259,0.019,0.959,-26.1679,3.4351,17.145,0,0,0
-0.2688,0.0342,0.9883,-23.6565,3.5191,16.3893,0,0,0
-0.2485,0.0583,1.0286,-23.0153,5.3664,16.4275,0,0,0
-0.2654,0.0352,1.0281,-22.4198,8.8015,16.0382,0,0,0
-0.2693,0.0481,1.0088,-20.5802,10.4504,15.0534,0,0,0
-0.2788,0.0405,0.989,-17.2214,10.7252,12.9084,0,0,0
-0.2769,0.0425,0.9836,-15.1679,10.4122,10.687,0,0,0
-0.2747,0.0469,1.0034,-16.6412,11.3206,10.0534,0,0,0
-0.2791,0.0325,0.9976,-17.6718,13.4122,10.0611,0,0,0
-0.2881,0.0132,0.9858,-15.6718,14.5496,9.5344,0,0,0
-0.2983,0.0266,0.9788,-13.1985,14.4504,7.8321,0,0,0
-0.3054,0.0208,0.9668,-10.771,12.9313,6.5191,0,0,0
-0.2917,0.0261,0.9944,-10.8092,12.6412,7.2519,0,0,0
-0.2771,0.0256,0.9924,-11.5573,14.1908,8.7634,0,0,0
-0.2957,0.0315,0.9875,-10.9618,15.3053,8.1679,0,0,0
-0.3113,0.0364,0.9614,-8.5191,14.5878,5.6336,0,0,0
-0.3301,0.0273,0.9324,-6.542,11.3969,3.4351,0,0,0
-0.3301,0.0193,0.9451,-4.1527,8.1221,2.8626,0,0,0
-0.3115,0.0188,0.9626,-1.3817,6.7557,2.8397,0,0,0
-0.3027,0.0449,0.9802,-1.6107,7.3969,3.1985,0,0,0
-0.2917,0.054,0.9902,-4.2443,9.4275,2.6718,0,0,0
-0.3047,0.0557,0.969,-5.6565,10.229,1.084,0,0,0
-0.3123,0.0427,0.9619,-8.0,9.8321,0.4351,0,0,0
-0.3298,0.0164,0.9463,-5.7557,8.1145,-0.5267,0,0,0
-0.3323,0.021,0.9297,-3.0611,4.7939,-0.9084,0,0,0
-0.3323,0.0303,0.9241,-2.6336,1.5725,-1.5878,0,0,0
-0.3203,0.0095,0.9546,-2.4962,-0.7557,0.0611,0,0,0
-0.2922,0.0134,0.9614,-1.4656,-0.0382,2.3053,0,0,0
-0.3005,0.0359,0.9805,-1.0458,1.313,2.3053,0,0,0
-0.3203,0.0474,0.9587,-1.855,1.2214,0.6183,0,0,0
-0.3259,0.0295,0.9731,-2.1298,-0.1145,0.6794,0,0,0
-0.3066,0.022,0.9756,0.1985,-0.4198,0.8092,0,0,0
-0.3064,0.0598,0.9805,0.1145,1.1985,-0.3053,0,0,0
-0.321,0.0586,0.9717,-2.0916,1.0992,-2.1832,0,0,0
-0.335,0.0415,0.9719,-4.0916,-0.2672,-3.0153,0,0,0
-0.325,0.0247,0.9653,-3.5573,-1.0611,-2.6718,0,0,0
-0.3149,0.02,0.9773,-3.7405,-0.9389,-2.7023,0,0,0
-0.3196,0.0044,0.9919,-3.0916,-0.5725,-2.084,0,0,0
-0.3059,0.0215,0.9971,-3.5496,0.4656,-0.9542,0,0,0
-0.3118,0.0088,0.9827,-2.5267,1.9389,-0.1527,0,0,0
-0.3154,0.0181,0.9824,-1.9084,2.2366,0.0153,0,0,0
-0.3257,0.022,0.9687,-1.4046,1.5496,-0.1069,0,0,0
-0.3367,0.0188,0.9634,-0.1145,-0.0153,-0.8473,0,0,0
-0.3228,0.0261,0.9714,-1.9237,-0.5725,0.0229,0,0,0
-0.3167,0.03,0.9893,-2.8702,0.1221,-0.0534,0,0,0
-0.3245,0.0342,0.9885,-3.626,0.3435,-0.9542,0,0,0
-0.3306,0.021,0.9873,-4.6412,0.1374,-2.084,0,0,0
-0.3254,0.009,0.9897,-3.6947,0.0153,-2.4198,0,0,0
-0.3152,0.0022,0.9888,-2.7328,0.7634,-1.4427,0,0,0
-0.3215,0.0005,0.9871,-1.916,1.2443,-1.1603,0,0,0
-0.335,0.0088,0.9941,-0.7176,2.3817,-0.9313,0,0,0
-0.3411,0.0212,1.002,-0.2061,2.0,-1.6718,0,0,0
-0.3403,-0.009,0.9661,2.3511,1.6565,-1.6107,0,0,0
-0.3386,-0.0176,0.9504,4.5115,-0.6565,0.1298,0,0,0
-0.322,-0.0061,0.9329,6.4046,-1.7481,1.855,0,0,0
-0.2954,0.0171,0.885,6.1069,-3.2748,3.5115,0,0,0
-0.2842,0.021,1.0007,2.7863,-2.4809,1.2595,0,0,0
-0.3245,0.0784,0.96,0.3435,-0.6718,-1.0534,1,0,0
-0.3345,-0.0129,0.96,0.8473,-2.7557,-0.8397,1,0,0
-0.304,0.0488,0.9722,0.7252,-2.5344,0.1756,1,0,0
-0.3123,0.0737,0.9744,-2.4656,-1.0458,-1.3664,1,0,0
-0.3259,0.0513,0.9644,-6.6947,-1.8626,-2.9771,1,0,0
-0.3152,0.0342,0.9736,-7.5267,-2.1527,-4.1527,1,0,0
-0.3145,0.0164,0.9854,-8.5802,-1.626,-4.458,1,0,0
-0.3147,0.0149,0.9858,-8.8626,-1.1374,-4.3588,1,0,0
-0.313,0.0049,0.9841,-8.8015,0.1374,-4.0916,1,0,0
-0.3262,0.0049,0.9829,-6.6107,0.5573,-5.542,1,0,0
-0.3235,-0.0093,0.9583,-4.1756,-0.3359,-4.7634,1,0,0
-0.3225,-0.0022,0.9771,-2.3893,-1.1527,-3.8473,1,0,0
-0.3086,0.019,0.9819,-2.8855,-0.7786,-3.1527,1,0,0
-0.3188,0.0129,0.9707,-4.0305,-0.1374,-3.0153,1,0,0
-0.3274,0.0176,0.9687,-4.7634,-0.8931,-2.8244,1,0,0
-0.3274,0.0076,0.9661,-5.3053,-1.7099,-1.9389,1,0,0
-0.3171,0.0027,0.9631,-5.0305,-2.6412,-1.8092,1,0,0
-0.3252,-0.0029,0.9746,-3.2748,-2.5344,-1.0458,1,0,0
-0.3232,0.0034,0.9729,-0.1908,-2.1985,-0.6489,1,0,0
-0.3179,0.0176,0.9719,2.0458,-2.6336,-0.4122,0,0,0
-0.3201,0.0337,0.9719,1.8015,-2.7634,-0.5802,0,0,0
-0.324,0.0295,0.9702,1.4962,-2.771,-0.7863,0,0,0
-0.3184,0.0327,0.9685,-0.1069,-2.6718,-1.7328,0,0,0
-0.3105,0.032,0.9795,-2.0076,-2.0458,-2.3664,0,0,0
-0.3147,0.0298,0.9744,-3.3969,-2.084,-3.2748,0,0,0
-0.3311,0.012,0.9731,-3.2366,-2.5496,-3.5725,0,0,0
-0.325,0.0117,0.9666,-2.084,-3.2748,-3.1221,0,0,0
-0.3291,-0.0007,0.9595,-0.9542,-4.4656,-2.8397,0,0,0
-0.3193,0.001,0.969,1.0,-4.4427,-1.771,0,0,0
-0.3135,-0.0042,0.9722,3.0305,-4.2214,-1.3053,0,0,0
-0.3127,0.0166,0.969,4.0382,-4.0229,-1.3206,0,0,0
-0.3162,0.0159,0.9712,4.6412,-4.3282,-1.8397,0,0,0
-0.3101,0.0276,0.9834,3.9084,-4.3969,-2.0382,0,0,0
-0.314,0.0386,0.9739,2.4122,-4.0305,-2.9847,0,0,0
-0.3269,0.0242,0.9644,1.4046,-5.4733,-3.6489,0,0,0
-0.3186,0.0151,0.9736,1.3893,-6.9618,-4.0458,0,0,0
-0.3123,0.0015,0.9727,3.1145,-8.0916,-3.6794,0,0,0
-0.3091,-0.002,0.9656,5.7863,-9.0076,-3.6565,0,0,0
-0.3071,0.0159,0.9792,7.3435,-9.7557,-3.3511,0,0,0
-0.3079,0.022,0.9797,6.7252,-10.2901,-3.3664,0,0,0
-0.2976,0.0334,0.9856,5.542,-9.9008,-3.1298,0,0,0
-0.2996,0.0366,0.9822,4.084,-10.2443,-4.1985,0,0,0
-0.3127,0.0208,0.9814,5.5573,-11.2595,-6.2137,0,0,0
-0.3123,0.0295,0.9712,8.5802,-12.6107,-7.7328,0,0,0
-0.3191,0.0259,0.9619,11.6718,-14.6489,-8.0153,0,0,0
-0.3181,0.0327,0.9573,13.4656,-17.9924,-7.9313,0,0,0
-0.3022,0.0481,0.9551,13.1832,-20.3969,-6.9618,0,0,0
-0.2983,0.0447,0.9431,12.9084,-21.8702,-7.2443,0,0,0
-0.2915,0.0547,0.9292,12.0687,-24.687,-7.7863,0,0,0
-0.2798,0.051,0.9209,11.687,-26.7634,-8.9466,0,0,0
-0.2866,0.0388,0.9224,13.9924,-30.8626,-10.626,0,0,0
-0.2659,0.0281,0.9409,17.3969,-33.7557,-12.8397,0,0,0
-0.2673,0.083,0.9709,19.4046,-34.8931,-12.8015,0,0,0
-0.2463,0.0332,0.9756,20.145,-44.7863,-8.7557,1,0,0
-0.2886,0.0701,0.9541,17.0611,-43.0305,-5.916,1,0,0
-0.2422,0.0625,0.9465,14.5878,-44.3817,-6.0076,1,0,0
-0.1855,0.0776,1.0076,14.1985,-45.8092,-5.9695,1,0,0
-0.2256,0.0627,1.0007,14.5954,-44.916,-8.2824,1,0,0
-0.2358,0.0583,1.0105,15.3969,-51.4733,-7.8702,1,0,0
-0.1599,0.0828,1.0532,11.7557,-49.1374,-6.1679,1,0,0
-0.1611,0.0615,1.0522,10.2366,-45.4275,-3.0992,1,0,0
-0.1592,0.0518,1.0625,8.229,-40.0534,-3.1374,1,0,0
-0.1526,0.0508,1.0674,8.1527,-36.7634,-3.7099,0,0,0
-0.1658,0.0647,1.0469,6.9924,-34.1298,-3.6031,0,0,0
-0.1387,0.0649,1.0405,5.5725,-33.3817,-2.374,0,0,0
-0.1252,0.0662,1.0457,4.0611,-31.4046,-1.1679,0,0,0
-0.187,0.0457,1.0256,4.229,-29.2137,0.3282,0,0,0
-0.0474,0.0618,1.0657,4.9924,-26.6641,0.374,0,0,0
-0.1648,0.0647,1.0149,4.3206,-27.5954,1.2366,0,0,0
-0.1023,0.0549,1.0186,2.4122,-28.2824,1.9008,0,0,0
-0.1304,0.041,1.0066,1.2977,-25.313,2.5878,0,0,0
-0.1328,0.0498,1.0017,1.4351,-27.1985,4.7252,0,0,0
-0.0991,0.0615,1.0242,2.4198,-27.8397,6.6947,0,0,0
-0.1399,0.0693,1.0125,3.1069,-27.9847,9.3817,0,0,0
-0.0564,0.0947,1.0549,1.5802,-26.0916,9.5725,0,0,0
-0.0984,0.1277,1.0571,-1.6031,-20.8092,7.4656,0,0,0
-0.0874,0.1099,1.0547,-5.084,-15.5038,5.1069,0,0,0
-0.1079,0.0789,1.0374,-5.3893,-13.2061,3.8321,0,0,0
-0.1123,0.0813,1.031,-3.5954,-13.2748,4.0382,0,0,0
-0.1365,0.0964,1.0173,-3.7252,-14.0458,3.1374,0,0,0
-0.0913,0.1082,1.0369,-2.7023,-16.4427,2.6336,0,0,0
-0.1177,0.0906,1.0225,-4.4046,-15.9847,3.3359,1,0,0
-0.1155,0.0806,1.0278,-3.7099,-17.6641,2.5878,1,0,0
-0.1077,0.0835,1.0342,-1.5802,-16.9618,1.4809,1,0,0
-0.1069,0.0762,1.0259,0.313,-17.1832,2.0076,1,0,0
-0.0564,0.105,1.0498,0.0611,-15.1527,2.6489,1,0,0
-0.0845,0.103,1.0479,-1.3664,-11.855,2.9618,1,0,0
-0.0642,0.1064,1.0664,-3.7786,-9.145,2.4733,1,0,0
-0.0574,0.0942,1.071,-4.0611,-4.9466,0.3969,1,0,0
-0.0806,0.0923,1.0515,-2.6794,-2.1985,0.0229,1,0,0
-0.0918,0.0957,1.0427,-1.542,-2.4046,-0.0153,1,0,0
-0.0896,0.0896,1.0457,-1.8321,-2.3282,0.4733,1,0,0
-0.0796,0.0925,1.0471,-1.458,-1.7099,0.8626,1,0,0
-0.0791,0.0935,1.0354,-1.6794,-0.7863,1.3893,1,0,0
-0.0798,0.105,1.0417,-2.4809,-0.4427,0.9771,1,0,0
-0.0776,0.1079,1.0376,-2.8473,-0.2061,-0.3282,1,0,0
-0.0767,0.1033,1.033,-3.0153,0.4198,-1.0916,1,0,0
-0.0713,0.1006,1.03,-3.8702,1.4656,-1.7328,1,0,0
-0.0671,0.0845,1.0183,-3.6183,2.374,-2.3359,1,0,0
-0.0735,0.0828,1.0171,-3.1985,1.9084,-2.7099,1,0,0
-0.0793,0.0769,1.0,-3.6183,0.771,-2.4427,1,0,0
-0.0759,0.0625,1.0024,-3.2595,-0.8626,-1.5954,1,0,0
-0.0747,0.0703,1.0127,-2.9313,-1.6565,-0.5725,1,0,0
-0.0664,0.0776,1.0286,-2.8779,-0.9008,0.1527,1,0,0
-0.0688,0.0806,1.0303,-1.9695,0.3969,-0.4046,1,0,0
-0.0679,0.0928,1.0325,-1.6489,0.8397,-0.5649,1,0,0
-0.0713,0.0889,1.0305,-2.2137,1.0076,-1.1756,1,0,0
-0.0747,0.0872,1.0242,-3.0992,0.8015,-1.1679,1,0,0
-0.0706,0.0823,1.0256,-3.4275,0.0763,-1.1527,1,0,0
-0.0703,0.0798,1.0364,-4.1298,0.7863,-1.0992,1,0,0
-0.0669,0.0825,1.0408,-4.0305,1.8015,-0.6107,1,0,0
-0.0735,0.0881,1.0291,-4.3588,2.3969,-0.7252,1,0,0
-0.0742,0.0852,1.0403,-5.5725,2.6641,-0.8626,1,0,0
-0.0735,0.0737,1.0337,-5.7023,3.1985,-0.2672,1,0,0
-0.0723,0.0579,1.0454,-4.3206,4.3206,-0.3359,1,0,0
-0.0605,0.0774,1.041,-3.229,6.2519,1.1374,1,0,0
-0.0674,0.0815,1.0454,-4.5802,8.0763,0.5725,1,0,0
-0.0752,0.0752,1.0479,-5.6107,9.771,1.9313,1,0,0
-0.0701,0.082,1.0642,-6.3206,12.5573,2.6794,1,0,0
-0.0779,0.0837,1.0618,-7.0611,14.6107,2.542,1,0,0
-0.0962,0.0852,1.0325,-7.0763,15.4275,0.8855,1,0,0
-0.1191,0.0769,1.0088,-5.9313,13.3893,0.2595,1,0,0
-0.1196,0.0789,0.999,-4.4809,10.5802,-1.7557,1,0,0
-0.1177,0.0671,0.9932,0.2595,7.8779,-4.0687,1,0,0
-0.113,0.0808,0.9924,3.1221,6.0382,-5.5725,1,0,0
-0.1248,0.0894,0.9802,3.1221,4.145,-6.3893,1,0,0
-0.1265,0.0789,0.9958,2.5191,2.0458,-6.6031,1,0,0
-0.1116,0.0857,1.0247,1.7481,1.1221,-5.7099,1,0,0
-0.1177,0.0933,1.0276,-0.0534,1.4809,-5.0458,1,0,0
-0.1121,0.0906,1.0271,-1.1145,1.9847,-5.4275,1,0,0
-0.1135,0.0735,1.0317,0.0,2.5191,-6.0611,1,0,0
-0.1106,0.0654,1.0278,2.9847,2.6641,-6.0534,1,0,0
-0.1096,0.0798,1.0166,4.8702,2.7023,-5.6641,1,0,0
-0.1084,0.0894,1.0305,4.5649,2.8244,-5.4962,1,0,0
-0.1079,0.0823,1.0327,2.4656,2.7328,-4.3969,1,0,0
-0.1118,0.0942,1.0271,-1.2214,2.5267,-3.3893,1,0,0
-0.1143,0.0859,1.0068,-3.7939,2.2824,-3.3588,1,0,0
-0.116,0.0771,1.0063,-4.9008,1.4198,-3.771,1,0,0
-0.1189,0.0669,1.0034,-4.8321,0.1374,-3.8015,1,0,0
-0.1162,0.0505,1.012,-2.9847,-1.313,-2.5344,1,0,0
-0.1055,0.0469,1.0168,-0.1603,-1.4046,-1.0076,1,0,0
-0.0918,0.0679,1.0374,1.6641,0.4656,0.2366,1,0,0
-0.0962,0.0828,1.0269,0.8015,1.7481,0.0076,1,0,0
-0.1069,0.0872,1.0151,-1.0229,1.8244,-0.1069,1,0,0
-0.1116,0.0808,1.0061,-3.0763,1.1985,0.1527,1,0,0
-0.1038,0.0713,1.01,-4.1374,0.0992,1.0153,1,0,0
-0.1025,0.0725,1.0103,-5.6031,0.1069,1.0611,1,0,0
-0.1025,0.0562,1.0203,-6.5878,-0.8855,0.9618,1,0,0
-0.1091,0.0637,1.0142,-6.3053,-1.1221,1.7557,1,0,0
-0.1016,0.0583,1.0225,-6.2366,-0.6031,1.7863,1,0,0
-0.1001,0.0708,1.0215,-5.1221,0.9008,0.9237,1,0,0
-0.1099,0.0586,1.0107,-3.1145,1.1756,0.6718,1,0,0
-0.1106,0.063,0.9995,-1.2214,0.4351,0.313,1,0,0
-0.113,0.072,1.0024,-1.1298,-0.9313,-0.3359,1,0,0
-0.1099,0.0647,1.0005,-0.6641,-2.1527,-0.6031,1,0,0
-0.1113,0.0642,1.0015,0.2977,-3.0305,-0.5267,1,0,0
-0.1094,0.0835,1.0042,-0.9466,-3.7023,0.2519,1,0,0
-0.1069,0.082,1.0093,-2.7634,-3.771,0.2443,1,0,0
-0.1038,0.0818,1.0193,-3.0153,-3.7176,-0.1527,1,0,0
-0.1052,0.0691,1.0229,-1.3206,-3.5802,-0.5038,1,0,0
-0.105,0.0789,1.0171,0.771,-3.5496,-0.4962,1,0,0
-0.1082,0.0837,1.0183,0.9847,-3.5573,-0.2519,1,0,0
-0.1057,0.0896,1.0374,1.0534,-2.8397,0.0382,1,0,0
-0.1011,0.1055,1.0254,-0.6794,-2.3511,0.0763,1,0,0
-0.1023,0.0894,1.0291,-2.7252,-2.313,-0.9084,1,0,0
-0.104,0.0886,1.0293,-3.1832,-2.6107,-0.8473,1,0,0
-0.1064,0.0833,1.0227,-3.4504,-2.7557,-0.2672,1,0,0
-0.1099,0.0886,1.0176,-3.5038,-3.2214,-0.2061,1,0,0
-0.1108,0.0874,1.0093,-2.9847,-3.5115,-1.0763,1,0,0
-0.1072,0.0874,1.0176,-2.8626,-4.626,-1.4351,1,0,0
-0.1067,0.0813,1.0269,-2.2214,-4.6336,-1.8626,1,0,0
-0.1013,0.0662,1.0286,-0.8244,-4.5802,-1.2214,1,0,0
-0.1003,0.0791,1.0232,0.0458,-4.1832,-0.9924,1,0,0
-0.1021,0.0857,1.0254,-0.2595,-4.084,-0.6565,1,0,0
-0.1069,0.0837,1.0303,-1.6183,-3.9466,-1.1298,1,0,0
-0.1016,0.0742,1.0322,-2.0229,-4.2672,-0.458,1,0,0
-0.0913,0.0742,1.0352,-2.9924,-4.0458,-0.1298,1,0,0
-0.0923,0.0747,1.0391,-3.9924,-3.1832,-0.5115,1,0,0
-0.0969,0.0652,1.0342,-3.7786,-2.4046,-0.5954,1,0,0
-0.1001,0.0745,1.0256,-4.3053,-2.3282,-0.1603,1,0,0
-0.1074,0.071,1.0251,-4.0305,-2.6336,-0.1603,1,0,0
-0.1028,0.0652,1.0264,-2.4275,-3.084,0.1832,1,0,0
-0.1028,0.0723,1.0237,-1.0458,-3.7252,-0.0153,1,0,0
-0.0955,0.0715,1.032,-0.8626,-3.855,0.8015,1,0,0
-0.0923,0.0771,1.0369,-1.313,-3.1374,1.687,1,0,0
-0.1052,0.0825,1.0283,-2.8931,-2.7634,1.6412,1,0,0
-0.1018,0.0818,1.0408,-3.6565,-2.542,1.4885,1,0,0
-0.0923,0.0806,1.0383,-3.4427,-2.3511,0.4122,1,0,0
-0.0903,0.0923,1.0427,-3.1908,-1.8092,-0.3817,1,0,0
-0.0859,0.0903,1.04,-3.5954,0.1145,-0.8626,1,0,0
-0.0901,0.0864,1.0325,-3.4275,1.313,-1.9084,1,0,0
-0.1011,0.0781,1.0168,-3.4733,0.9389,-2.1145,1,0,0
-0.105,0.0627,1.02,-3.7099,-0.4427,-1.6641,1,0,0
-0.0974,0.0625,1.0146,-2.8168,-1.5038,-0.7863,1,0,0
-0.094,0.071,1.0203,-2.0916,-1.8397,-0.0382,1,0,0
-0.0916,0.0798,1.022,-1.687,-2.0,-0.0763,1,0,0
-0.0952,0.085,1.0132,-2.1603,-2.6565,-0.1756,1,0,0
-0.0962,0.0906,1.0129,-2.0992,-3.1832,-1.3664,1,0,0
-0.1023,0.0854,1.0161,-2.1527,-4.2901,-1.9771,1,0,0
-0.0979,0.0771,1.0161,-2.5267,-5.3817,-1.3435,1,0,0
-0.0835,0.0676,1.0237,-1.9389,-5.9084,-0.3969,1,0,0
-0.0874,0.0652,1.0349,-2.2519,-6.8855,0.6641,1,0,0
-0.0759,0.0569,1.0286,-1.1298,-6.7023,1.2519,1,0,0
-0.0679,0.082,1.0347,-2.0153,-5.3664,1.6183,1,0,0
-0.0779,0.0862,1.0466,-3.6718,-4.6718,1.313,1,0,0
-0.0659,0.0723,1.0408,-4.626,-2.4198,-0.0534,1,0,0
-0.0779,0.0647,1.0344,-3.5344,-0.771,-1.3435,1,0,0
-0.0879,0.0632,1.0203,-1.0153,-0.542,-0.916,1,0,0
-0.0981,0.062,0.998,0.7176,-2.2977,-0.1145,1,0,0
-0.0957,0.0613,0.999,1.374,-4.4885,1.2366,1,0,0
-0.0933,0.0671,1.002,1.7481,-6.2977,2.4504,1,0,0
-0.0925,0.0916,1.0117,-0.7176,-7.4275,2.5878,1,0,0
-0.0481,0.0981,1.0422,-4.145,-8.8931,2.8092,1,0,0
-0.0635,0.0818,1.0271,-6.8397,-7.6718,0.084,1,0,0
-0.0833,0.0518,1.0242,-6.3664,-7.0611,0.0229,1,0,0
-0.0701,0.0571,1.0298,-3.8015,-5.6183,-0.2137,1,0,0
-0.0583,0.0491,1.0413,-1.8702,-3.1298,0.1221,1,0,0
-0.0491,0.0625,1.0547,0.2443,-0.2824,0.8015,1,0,0
-0.0605,0.0708,1.032,0.5038,1.7634,0.1145,1,0,0
-0.0725,0.0715,1.0344,-0.1832,2.3588,-0.4275,1,0,0
-0.0833,0.0703,1.02,-1.1985,1.542,-0.6794,1,0,0
-0.083,0.0723,1.0134,-2.3053,0.5573,-1.2214,1,0,0
-0.083,0.0764,1.0166,-3.1756,-0.771,-1.374,1,0,0
-0.0789,0.0642,1.0173,-4.1756,-0.9771,-1.1298,1,0,0
-0.0776,0.0559,1.0215,-3.2977,-1.084,-0.9084,1,0,0
-0.0718,0.0615,1.0381,-2.1221,-0.626,-0.3282,1,0,0
-0.0703,0.0686,1.0352,-1.9618,0.4351,-0.5344,1,0,0
-0.0757,0.0569,1.0349,-0.9542,1.2977,-0.7099,1,0,0
-0.0813,0.0718,1.0247,-0.5344,1.0382,-0.9389,1,0,0
-0.0803,0.0747,1.0151,-1.0611,0.3588,-0.8779,1,0,0
-0.0847,0.0676,1.0115,-1.3588,-0.4885,-0.8473,1,0,0
-0.0806,0.071,1.0186,-1.5191,-1.5573,-0.6565,1,0,0
-0.0703,0.0793,1.0244,-2.313,-1.6183,-0.4122,1,0,0
-0.0701,0.0762,1.0305,-2.7939,-1.4962,-0.2748,1,0,0
-0.0691,0.0784,1.0269,-3.3588,-0.9466,-0.5038,1,0,0
-0.0713,0.0815,1.0247,-4.0076,0.2977,-1.1298,1,0,0
-0.0818,0.0601,1.0237,-2.8779,0.9084,-0.8779,1,0,0
-0.0798,0.0627,1.0288,-0.145,0.3359,-0.6947,1,0,0
-0.0762,0.0842,1.0249,1.3664,-0.4733,-0.4122,1,0,0
-0.0745,0.0952,1.0308,0.7405,-0.6565,-0.8855,1,0,0
-0.0762,0.0879,1.03,-0.5496,-0.1679,-1.4733,1,0,0
-0.0784,0.0886,1.0332,-2.771,0.0153,-1.5038,1,0,0
-0.0796,0.0837,1.0269,-4.4122,0.2137,-1.1069,1,0,0
-0.0728,0.083,1.0366,-5.0,0.1985,-1.0458,1,0,0
-0.0701,0.0769,1.0352,-5.1298,0.6718,-1.8168,1,0,0
-0.0718,0.0693,1.0208,-4.7328,0.687,-2.3893,1,0,0
-0.0859,0.0601,1.021,-3.6489,0.4733,-2.4809,1,0,0
-0.0845,0.0498,1.0281,-2.0611,-0.2901,-2.2061,1,0,0
-0.0862,0.0513,1.0171,-0.4656,-1.0916,-1.1069,1,0,0
-0.0771,0.0657,1.0266,-0.5038,-1.2366,-0.1756,1,0,0
-0.075,0.0647,1.0247,-0.8779,-0.9237,-0.2519,1,0,0
-0.073,0.0735,1.0266,-0.5725,-0.2595,-0.7863,1,0,0
-0.0745,0.083,1.0198,-1.5649,0.0076,-1.0992,1,0,0
-0.0835,0.0771,1.0232,-3.7328,0.1374,-1.374,1,0,0
-0.0872,0.0571,1.019,-4.1527,-0.6107,-1.1832,1,0,0
-0.0867,0.0486,1.0278,-2.7634,-0.7863,-0.8092,1,0,0
-0.0859,0.0498,1.0286,-0.7557,-1.1527,0.0229,1,0,0
-0.0771,0.0669,1.0317,0.5573,-1.1756,-0.4198,1,0,0
-0.0769,0.0764,1.0405,-0.0458,-0.6107,-0.313,1,0,0
-0.0735,0.084,1.0339,-1.4351,0.2595,-1.4733,1,0,0
-0.0798,0.0781,1.0308,-3.1603,0.6718,-2.0687,1,0,0
-0.0857,0.0625,1.0334,-3.5038,0.3664,-2.0916,1,0,0
-0.0818,0.0562,1.0212,-2.6412,0.0534,-1.2443,1,0,0
-0.0791,0.0627,1.021,-2.5573,-0.7557,-1.3053,1,0,0
-0.0735,0.0632,1.0278,-1.9695,-0.9618,-0.7023,1,0,0
-0.0725,0.0662,1.0293,-2.229,-0.3817,-1.3053,1,0,0
-0.0771,0.0527,1.0281,-1.5802,0.4427,-1.0076,1,0,0
-0.0815,0.0659,1.0195,-1.1679,0.2443,-0.542,1,0,0
-0.0825,0.0635,1.021,-0.7863,-0.4809,-0.3588,1,0,0
-0.0776,0.0737,1.0254,-0.7099,-1.2443,-0.1908,1,0,0
-0.0693,0.0737,1.0254,-1.7023,-0.6336,-0.5115,1,0,0
-0.0742,0.0728,1.0269,-1.3206,-0.5878,-1.0534,1,0,0
-0.0789,0.0789,1.0186,-1.2137,-0.4122,-2.0153,1,0,0
-0.0771,0.0679,1.0208,-1.4809,-0.5344,-1.6718,1,0,0
-0.0798,0.0537,1.0249,0.0458,-0.6183,-1.1756,1,0,0
-0.0781,0.0525,1.0293,2.5496,0.1221,-1.4046,1,0,0
-0.0732,0.0769,1.0251,4.374,0.2061,-1.6794,1,0,0
-0.0771,0.0928,1.0083,4.0916,0.626,-2.9618,1,0,0
-0.0791,0.0959,1.0215,2.6336,0.5573,-4.4885,1,0,0
-0.0796,0.0889,1.0171,2.7786,0.8015,-5.916,1,0,0
-0.0752,0.0825,1.0317,1.8855,0.8473,-6.4962,1,0,0
-0.075,0.0786,1.0337,1.0687,1.1145,-4.458,1,0,0
-0.0757,0.0688,1.0227,0.0916,1.8244,-3.3359,1,0,0
-0.074,0.0762,1.0242,-0.7023,2.8321,-1.8626,1,0,0
-0.0825,0.071,1.031,-1.1908,2.6794,-1.3206,1,0,0
-0.0876,0.0745,1.0237,-1.9237,2.7023,-0.084,1,0,0
-0.0908,0.0784,1.0171,-3.2595,2.2595,1.1069,1,0,0
-0.0874,0.0793,1.0261,-7.5573,2.0076,2.5344,1,0,0
-0.0806,0.0725,1.0334,-10.4122,2.2672,4.2443,1,0,0
-0.0691,0.0613,1.0486,-15.0611,3.7481,6.8092,1,0,0
-0.0781,0.0601,1.0603,-19.1908,6.2519,10.4122,1,0,0
-0.0691,0.0527,1.0742,-22.5573,9.1145,11.6412,1,0,0
-0.075,0.0591,1.0674,-25.1603,11.4046,12.9084,1,0,0
-0.0876,0.0359,1.0403,-27.4885,12.3053,14.6794,1,0,0
-0.106,0.0168,1.0286,-28.1603,11.6794,17.3435,1,0,0
-0.0999,0.0293,1.0181,-27.2519,10.0534,19.7023,1,0,0
-0.1133,0.0183,1.0146,-26.6412,8.6565,21.4046,1,0,0
-0.1147,0.0444,1.0154,-28.0763,6.8855,22.916,1,0,0
-0.1016,0.031,1.0334,-29.2824,6.2366,22.2901,1,0,0
-0.1016,0.0229,1.0261,-29.1527,6.2214,21.7328,1,0,0
-0.1018,0.0195,1.0203,-26.8168,6.8702,19.4733,1,0,0
-0.1052,-0.0037,1.0249,-22.4809,6.6183,17.6489,1,0,0
-0.0889,0.0051,1.0308,-18.6183,8.0153,16.9313,1,0,0
-0.113,0.0117,1.0291,-15.1908,8.1679,15.9695,1,0,0
-0.1123,0.0251,1.0283,-13.8321,7.9389,14.9695,1,0,0
-0.1099,0.04,1.0093,-13.5802,8.2519,11.7557,1,0,0
-0.1304,0.0271,0.9919,-13.3511,6.2672,8.4427,1,0,0
-0.1277,0.0203,0.9888,-12.7099,3.4122,6.4351,1,0,0
-0.1208,0.0078,0.9905,-12.8168,1.2595,6.0,1,0,0
-0.115,-0.002,1.0049,-11.7481,0.4656,7.3359,1,0,0
-0.1082,-0.0056,1.0227,-10.1298,0.8779,7.7939,1,0,0
-0.1018,0.0103,1.0261,-8.8168,1.6718,8.0382,1,0,0
-0.106,0.0195,1.0171,-7.9313,2.1832,6.145,1,0,0
-0.1147,0.0149,1.0168,-6.4198,1.7405,4.0382,1,0,0
-0.1218,0.0046,1.0042,-4.4656,-0.2366,2.7405,1,0,0
-0.1201,0.0039,1.0105,-2.7176,-1.7252,2.4122,1,0,0
-0.1052,0.0066,1.0188,-2.8779,-2.1221,3.626,1,0,0
-0.1003,0.0159,1.0332,-4.4733,-2.0382,4.9008,1,0,0
-0.0989,0.0354,1.0374,-8.1679,-1.8473,5.1603,1,0,0
-0.1045,0.0327,1.0291,-12.6489,-2.0992,4.374,1,0,0
-0.1121,0.0146,1.0149,-15.542,-2.4427,3.9924,1,0,0
-0.1187,-0.0063,1.0061,-14.3511,-4.1374,3.5115,1,0,0
-0.1157,-0.0105,1.0068,-12.0534,-6.1603,3.855,1,0,0
-0.1121,0.0005,1.0105,-11.7252,-7.2748,3.8931,1,0,0
-0.0984,0.0056,1.0171,-13.7176,-7.7405,5.458,1,0,0
-0.0886,0.0134,1.0308,-17.4504,-7.2519,6.4198,1,0,0
-0.0906,-0.0103,1.0366,-21.0229,-5.6489,7.0382,1,0,0
-0.0891,-0.0151,1.0376,-23.8702,-4.0458,8.0763,1,0,0
-0.0991,-0.0334,1.0337,-25.3588,-2.3588,8.3969,1,0,0
-0.0964,-0.0457,1.0366,-22.2824,-1.2672,8.2977,1,0,0
-0.0957,-0.0549,1.033,-17.2214,-0.4351,6.3359,1,0,0
-0.1074,-0.0479,1.0134,-13.8702,-0.2443,5.5802,1,0,0
-0.1108,-0.0378,1.0095,-12.6947,-0.5038,5.9466,1,0,0
-0.1228,-0.0298,1.0095,-13.9389,-1.1221,7.0,1,0,0
-0.1184,-0.0276,1.0044,-15.6183,-2.687,7.0076,1,0,0
-0.1125,-0.0325,1.0227,-17.2977,-2.8244,6.2595,1,0,0
-0.1099,-0.0493,1.0266,-17.1603,-2.8702,4.771,1,0,0
-0.1121,-0.0681,1.032,-14.9695,-2.1985,3.6718,1,0,0
-0.103,-0.0608,1.0315,-12.4351,-2.4504,2.4351,1,0,0
-0.1057,-0.071,1.0427,-10.6107,-1.8626,2.1679,1,0,0
-0.1011,-0.0752,1.0474,-8.229,-0.4733,2.1832,1,0,0
-0.0986,-0.0493,1.0415,-9.1603,0.1985,2.2519,1,0,0
-0.1025,-0.0557,1.0291,-11.9008,1.1603,2.8244,1,0,0
-0.1082,-0.0518,1.022,-13.2366,1.4656,3.1832,1,0,0
-0.116,-0.0532,1.0071,-14.1145,0.5267,1.8092,1,0,0
-0.1194,-0.0566,1.0066,-14.5191,-0.2977,0.4198,1,0,0
-0.1125,-0.0679,1.009,-14.7481,-2.2901,0.1298,1,0,0
-0.106,-0.0886,1.0254,-13.9542,-3.0687,1.4885,1,0,0
-0.0967,-0.1006,1.0322,-11.5344,-2.229,2.6412,1,0,0
-0.1008,-0.0852,1.0259,-9.4656,-1.5496,3.1221,1,0,0
-0.1089,-0.0867,1.0049,-7.4656,-2.0076,2.4885,1,0,0
-0.1145,-0.0806,0.9978,-6.0916,-3.6794,1.8397,1,0,0
-0.1138,-0.0676,0.9934,-6.229,-5.7023,1.8015,1,0,0
-0.1113,-0.0479,1.0027,-7.6031,-7.9313,2.5267,1,0,0
-0.1018,-0.0464,1.0039,-10.3664,-9.2748,2.3893,1,0,0
-0.0981,-0.0447,1.0105,-14.7099,-9.6947,1.6565,1,0,0
-0.0906,-0.054,1.0259,-17.0611,-9.6336,0.5344,1,0,0
-0.0803,-0.0674,1.0305,-17.9924,-8.7252,-0.542,1,0,0
-0.0833,-0.0916,1.0271,-16.3053,-7.374,-1.2824,1,0,0
-0.0913,-0.0754,1.012,-13.7557,-7.6183,-1.6412,1,0,0
-0.0908,-0.072,1.0127,-12.855,-8.0153,-2.1908,1,0,0
-0.0898,-0.072,1.0105,-14.1756,-9.1985,-1.6412,1,0,0
-0.0781,-0.0994,1.001,-15.0534,-9.3969,-1.4198,1,0,0
-0.0752,-0.106,1.0073,-13.7099,-9.9542,-0.6336,1,0,0
-0.1199,-0.114,0.9978,-12.5649,-12.3969,1.0382,1,0,0
-0.0979,-0.1177,1.01,-10.8702,-14.6947,1.4198,1,0,0
-0.061,-0.1155,1.0454,-10.0305,-12.458,1.6031,1,0,0
-0.0654,-0.1182,1.0415,-8.9237,-11.5115,2.3969,1,0,0
-0.0408,-0.1133,1.0557,-8.0,-8.1832,1.7405,1,0,0
-0.0544,-0.1265,1.0706,-6.0458,-4.9237,0.4427,1,0,0
-0.0513,-0.1304,1.0652,-3.084,-1.626,0.2901,1,0,0
-0.0593,-0.1287,1.0544,-1.4122,1.0763,0.2061,1,0,0
-0.0659,-0.1187,1.0442,-0.229,2.6489,0.1603,1,0,0
-0.0667,-0.1172,1.0432,-0.1527,3.4275,0.4275,1,0,0
-0.0735,-0.1226,1.0381,0.8855,4.4885,-0.2519,1,0,0
-0.0754,-0.1199,1.0239,2.1298,4.3817,-0.4351,1,0,0
-0.0818,-0.1282,1.0225,2.0992,3.2137,0.7405,1,0,0
-0.0796,-0.1387,1.0271,3.2748,3.0382,2.2824,1,0,0
-0.0784,-0.1179,1.0278,3.8779,4.2977,3.2672,1,0,0
-0.0815,-0.1123,1.0251,4.9695,5.771,3.0305,1,0,0
-0.0942,-0.1028,1.0222,4.855,5.1603,2.7481,1,0,0
-0.0933,-0.1086,1.0178,5.5573,4.374,2.4351,1,0,0
-0.0869,-0.0967,1.0188,5.3817,3.2824,2.1603,1,0,0
-0.094,-0.0889,1.0051,2.9008,1.916,1.3817,1,0,0
-0.095,-0.0876,1.0105,-1.5038,0.6489,1.1603,1,0,0
-0.093,-0.0913,1.0193,-4.1908,0.3435,1.1145,1,0,0
-0.0776,-0.1245,1.0264,-3.0687,0.8397,1.5802,1,0,0
-0.0647,-0.1128,1.0317,-0.3435,2.0076,1.8244,1,0,0
-0.0815,-0.1125,1.0266,1.5649,3.0916,2.2824,1,0,0
-0.0911,-0.1006,1.0247,3.3206,3.1145,1.9313,1,0,0
-0.0898,-0.0796,1.0193,2.7481,2.4198,1.3282,1,0,0
-0.0935,-0.062,1.0103,-0.8626,1.7634,1.0382,1,0,0
-0.0916,-0.0654,1.0015,-4.2595,1.229,-0.7939,1,0,0
-0.0945,-0.0859,0.9976,-6.0305,0.0534,-1.6794,1,0,0
-0.0869,-0.1101,1.01,-5.1298,-1.1756,-0.9771,1,0,0
-0.0798,-0.1184,1.0242,-1.2672,-1.2137,-0.1603,1,0,0
-0.0737,-0.0945,1.021,0.3969,-0.4504,0.626,1,0,0
-0.0862,-0.0754,1.0208,-0.229,-0.6336,0.3511,1,0,0
-0.0835,-0.0728,1.0298,-3.1374,-0.3664,0.3817,1,0,0
-0.0737,-0.0801,1.0327,-5.4427,0.7557,-0.3206,1,0,0
-0.0769,-0.0955,1.0288,-5.4504,1.6412,-0.5878,1,0,0
-0.0852,-0.1028,1.0242,-3.8397,1.4427,-1.4427,1,0,0
-0.0845,-0.1272,1.0251,-1.2061,0.8321,-0.8626,1,0,0
-0.0803,-0.105,1.0203,0.4198,1.5802,-0.0916,1,0,0
-0.0884,-0.1025,1.0129,-0.771,2.1679,0.0229,1,0,0
-0.0867,-0.0874,1.0071,-3.1145,1.4962,0.0153,1,0,0
-0.0891,-0.1011,1.0068,-6.5191,0.7176,0.6794,1,0,0
-0.0874,-0.1111,1.0188,-7.1679,0.0687,1.7252,1,0,0
-0.0837,-0.1226,1.0151,-6.6031,0.1985,2.084,1,0,0
-0.0862,-0.1255,1.0298,-2.9847,1.0229,2.8855,1,0,0
-0.0847,-0.1152,1.0237,0.6107,2.1603,2.0458,1,0,0
-0.0969,-0.1001,1.0125,2.0916,1.7863,0.7863,1,0,0
-0.103,-0.0959,1.0115,2.8244,0.4885,0.1069,1,0,0
-0.0947,-0.0916,1.0105,2.3435,-0.7863,0.1069,1,0,0
-0.0837,-0.0881,1.0212,0.542,-1.0611,-0.0382,1,0,0
-0.0811,-0.0784,1.0254,-3.3893,-0.7328,0.374,1,0,0
-0.0869,-0.0879,1.0276,-6.1679,0.0611,-0.1069,1,0,0
-0.0872,-0.1055,1.0293,-6.0076,0.9084,-0.5802,1,0,0
-0.0938,-0.1206,1.0256,-3.1374,1.5573,-0.9237,1,0,0
-0.0969,-0.1189,1.0217,0.687,1.1069,-0.2519,1,0,0
-0.0952,-0.0991,1.0193,2.1374,1.2672,0.2443,1,0,0
-0.0947,-0.0823,1.0244,0.8092,1.3282,0.6031,1,0,0
-0.0967,-0.0808,1.0325,-0.8321,2.0076,-0.7786,1,0,0
-0.0942,-0.0881,1.0254,-2.1985,2.145,-1.4198,1,0,0
-0.0986,-0.0972,1.0232,-2.6031,1.8397,-1.5802,1,0,0
-0.1006,-0.1328,1.011,-0.1145,0.6641,-0.4046,1,0,0
-0.0981,-0.1265,1.0232,3.5496,-0.2366,0.8626,1,0,0
-0.0989,-0.0881,1.0293,3.8168,-0.0153,-0.3588,1,0,0
-0.0908,-0.0842,1.0154,2.5802,0.2748,-0.4809,1,0,0
-0.0879,-0.0796,1.0085,1.7939,1.3893,-2.1145,1,0,0
-0.0615,-0.0752,1.0276,-1.2061,1.3511,-3.2748,1,0,0
-0.1206,-0.0837,1.0247,-2.2214,1.6336,-3.9466,1,0,0
-0.1028,-0.1282,1.0151,-1.9695,0.687,-3.3359,1,0,0
-0.093,-0.1079,1.0225,0.4962,0.4351,-2.0,1,0,0
-0.0857,-0.0862,1.0247,0.5344,1.1603,-2.0687,1,0,0
-0.0862,-0.0764,1.0134,-1.7557,0.7634,-1.3664,1,0,0
-0.0884,-0.0701,1.0107,-5.0763,0.3664,-1.5649,1,0,0
-0.0896,-0.0801,1.0068,-7.4275,0.4427,-1.5878,1,0,0
-0.0881,-0.0754,1.0186,-9.7634,1.771,-1.9924,1,0,0
-0.0913,-0.1111,1.0208,-9.7557,2.145,-3.916,1,0,0
-0.0977,-0.1396,1.0386,-6.2748,2.0992,-2.1527,1,0,0
-0.0977,-0.1196,1.0371,-2.7481,2.2901,-0.6947,1,0,0
-0.1008,-0.1023,1.0112,-0.9466,2.2901,-0.8626,1,0,0
-0.1125,-0.0996,0.9976,-0.458,0.4046,-1.6718,1,0,0
-0.1077,-0.092,0.9988,-0.7863,-0.7557,-2.1298,1,0,0
-0.1089,-0.106,1.0068,-1.8473,-2.6183,-1.8702,1,0,0
-0.1033,-0.1145,1.0071,-0.9695,-2.9008,-0.6031,1,0,0
-0.0974,-0.1204,1.02,0.6336,-2.542,-0.0076,1,0,0
-0.0977,-0.1118,1.0305,3.1374,-1.7099,0.4733,1,0,0
-0.1008,-0.1077,1.0227,5.0611,-1.855,0.229,1,0,0
-0.1023,-0.0942,1.0244,4.6565,-2.0305,-0.2977,1,0,0
-0.1023,-0.0896,1.0247,3.2595,-1.916,-0.5115,1,0,0
-0.1021,-0.0894,1.0222,2.0,-2.3969,0.0076,1,0,0
-0.0964,-0.0811,1.0295,0.2977,-2.2061,-0.6565,1,0,0
-0.0981,-0.084,1.0378,-1.4809,-1.6489,-1.3053,1,0,0
-0.0969,-0.0928,1.043,-2.0382,-0.5191,-1.4504,1,0,0
-0.0967,-0.106,1.0273,-2.8473,-0.1221,-0.4656,1,0,0
-0.1006,-0.1089,1.0371,-2.0076,0.6336,-0.2595,1,0,0
-0.1021,-0.1067,1.0283,-0.9008,0.5344,-0.2824,1,0,0
-0.0974,-0.0916,1.0249,-1.5115,0.5878,-0.5878,1,0,0
-0.1064,-0.095,1.0137,-2.0458,0.9542,-0.7939,1,0,0
-0.0942,-0.0972,1.0283,-1.3435,1.3282,-0.8702,1,0,0
-0.093,-0.0867,1.0249,-0.9771,2.3206,-2.1298,1,0,0
-0.0967,-0.0972,1.0293,-0.3435,2.6565,-2.3206,1,0,0
-0.093,-0.1047,1.0413,-0.3435,3.3893,-2.0305,1,0,0
-0.1025,-0.0986,1.0305,0.3664,4.1374,-1.8015,1,0,0
-0.1021,-0.0952,1.0188,0.0763,4.2214,-2.2137,1,0,0
-0.1111,-0.1013,1.0122,0.2443,3.5267,-2.1069,1,0,0
-0.1033,-0.1021,1.0112,2.313,3.0,-2.2366,1,0,0
-0.0894,-0.0884,1.0229,4.5344,3.6412,-3.2901,1,0,0
-0.083,-0.0876,1.043,7.5954,5.7176,-4.4275,1,0,0
-0.0796,-0.1052,1.0496,12.2977,8.4504,-5.5954,1,0,0
-0.0776,-0.0991,1.0667,16.7252,15.0916,-7.6794,1,0,0
-0.0964,-0.0623,1.0583,19.916,18.8702,-10.0229,1,0,0
-0.1182,-0.0415,1.03,18.8473,19.5191,-11.9847,1,0,0
-0.1123,-0.0339,1.0242,14.9008,20.5573,-13.2061,1,0,0
-0.125,-0.0415,1.0066,12.2137,19.9542,-13.9924,1,0,0
-0.1238,-0.0593,1.0076,11.0534,19.4962,-15.0916,1,0,0
-0.114,-0.0652,1.009,11.6641,20.3359,-15.1756,1,0,0
-0.1382,-0.062,1.0037,11.7099,18.1145,-13.9237,1,0,0
-0.1436,-0.0662,1.0037,10.4427,16.5954,-12.2977,1,0,0
-0.1514,-0.0696,1.0061,9.5115,14.3817,-10.1374,1,0,0
-0.1416,-0.0642,1.0051,8.8473,13.626,-8.542,1,0,0
-0.1511,-0.0527,1.0081,8.7481,12.458,-7.6336,1,0,0
-0.1501,-0.0566,1.0115,7.0229,10.1908,-5.9771,1,0,0
-0.1575,-0.0435,1.0061,3.3206,7.7176,-3.7557,1,0,0
-0.1594,-0.0637,1.001,-0.855,5.4962,-2.2672,1,0,0
-0.1672,-0.0601,0.9883,-3.9847,2.0382,-0.8244,1,0,0
-0.1599,-0.0615,0.9998,-6.7328,-1.3053,0.2443,1,0,0
-0.1516,-0.0767,1.0017,-6.5725,-2.2672,1.0305,1,0,0
-0.1384,-0.0703,1.0095,-5.771,-1.6336,1.4198,1,0,0
-0.1384,-0.0432,1.0125,-7.4733,-1.9618,1.5267,1,0,0
-0.1462,-0.0522,1.002,-11.5725,-2.4275,3.0458,1,0,0
-0.1531,-0.0557,0.9958,-15.4885,-3.4809,3.9695,1,0,0
-0.1484,-0.0747,0.9929,-17.4046,-5.229,4.5573,1,0,0
-0.1467,-0.0808,0.9961,-17.7328,-7.1069,5.9771,1,0,0
-0.1421,-0.0625,0.9875,-19.313,-8.3588,7.5725,1,0,0
-0.1523,-0.0884,1.0012,-19.2519,-8.8931,7.0763,1,0,0
-0.1338,-0.0869,1.0068,-18.7634,-8.7023,6.6107,1,0,0
-0.125,-0.085,1.0176,-18.2366,-7.1527,6.1908,1,0,0
-0.1194,-0.0935,1.0168,-17.6489,-5.4733,6.3282,1,0,0
-0.1279,-0.0911,1.0251,-18.3588,-4.2748,6.3969,1,0,0
-0.1331,-0.0894,1.0132,-20.1527,-4.0458,7.8626,1,0,0
-0.1401,-0.082,1.0032,-21.3282,-4.3359,8.1679,1,0,0
-0.1396,-0.1016,0.991,-21.4656,-4.8397,7.9466,1,0,0
-0.1423,-0.1423,0.9993,-19.9924,-5.8244,6.7099,1,0,0
-0.1296,-0.1035,0.9951,-19.0305,-6.6489,7.7023,1,0,0
-0.1438,-0.0862,0.9966,-21.6412,-8.4809,9.5191,1,0,0
-0.1436,-0.1094,1.0127,-23.0916,-8.5496,10.7557,1,0,0
-0.1489,-0.1243,1.021,-23.5725,-7.687,9.8092,1,0,0
-0.093,-0.1313,1.0295,-20.8702,-6.7252,8.6031,1,0,0
-0.1255,-0.127,1.0266,-17.0534,-4.3282,6.6489,1,0,0
-0.1331,-0.1372,1.0132,-13.3817,-4.0763,5.3206,1,0,0
-0.1262,-0.1221,0.9973,-11.7252,-4.4885,4.8779,1,0,0
-0.1292,-0.1316,0.9983,-10.2901,-4.6107,4.9695,1,0,0
-0.126,-0.1113,0.9978,-10.3511,-5.7099,4.1069,1,0,0
-0.1272,-0.1145,1.0037,-12.084,-5.7863,4.5191,1,0,0
-0.1221,-0.1082,1.0088,-14.6718,-5.7252,4.7023,1,0,0
-0.1218,-0.1348,1.0161,-15.0992,-5.3588,5.458,1,0,0
-0.1211,-0.1294,1.0188,-14.313,-5.4656,5.4198,1,0,0
-0.1313,-0.1514,1.0161,-11.145,-4.9618,4.2443,1,0,0
-0.1313,-0.1414,1.0176,-8.3817,-5.2748,3.0305,1,0,0
-0.1299,-0.1287,1.0159,-8.1527,-4.9695,2.1221,1,0,0
-0.1274,-0.1289,1.0142,-8.374,-5.2137,1.9847,1,0,0
-0.127,-0.1309,1.0151,-7.1908,-5.6107,1.229,1,0,0
-0.123,-0.1094,1.0059,-8.7786,-6.3282,1.3435,1,0,0
-0.1306,-0.1169,1.0063,-12.3282,-7.1908,1.1985,1,0,0
-0.1201,-0.1147,1.0142,-16.8397,-8.3817,1.9008,1,0,0
-0.1121,-0.1667,1.011,-18.145,-9.916,2.0992,1,0,0
-0.1301,-0.1833,1.0117,-15.3893,-10.6031,3.229,1,0,0
-0.127,-0.1763,1.0105,-10.6183,-9.5802,4.4809,1,0,0
-0.1064,-0.1741,1.0229,-6.7176,-7.9084,4.5878,1,0,0
-0.0798,-0.1443,1.0225,-5.2137,-7.2137,4.6641,1,0,0
-0.104,-0.1335,1.0142,-7.2824,-6.9008,3.8092,1,0,0
-0.1086,-0.1536,1.0208,-7.0305,-6.9924,2.855,1,0,0
-0.1067,-0.157,1.0098,-6.1756,-6.542,2.1527,1,0,0
-0.105,-0.1455,1.0183,-7.3359,-6.7786,2.5954,1,0,0
-0.1018,-0.1592,1.0154,-7.7786,-6.0305,2.5802,1,0,0
-0.0906,-0.1667,1.03,-6.6947,-4.3282,2.3359,1,0,0
-0.0884,-0.1589,1.0283,-4.9618,-3.2443,2.0229,1,0,0
-0.0938,-0.1548,1.0256,-4.458,-2.2977,1.145,1,0,0
-0.104,-0.1501,1.0159,-5.4046,-1.9313,0.458,1,0,0
-0.113,-0.175,1.0122,-5.0534,-2.3053,0.7863,1,0,0
-0.1182,-0.1658,1.001,-4.229,-3.6107,1.1069,1,0,0
-0.1155,-0.1724,1.0173,-3.7176,-4.3893,2.0916,1,0,0
-0.0872,-0.158,1.0173,-3.4046,-3.5496,3.229,1,0,0
-0.0908,-0.1433,1.019,-4.5267,-1.916,1.2366,1,0,0
-0.0911,-0.1533,1.0193,-4.7328,-1.4656,0.1603,1,0,0
-0.0955,-0.1541,1.0105,-5.0305,-0.7252,-0.3511,1,0,0
-0.0884,-0.1689,1.0256,-5.9084,0.7405,-1.9618,1,0,0
-0.1016,-0.1655,1.0422,-4.5038,2.2061,-1.8702,1,0,0
-0.1079,-0.1829,1.0281,-2.0,2.8397,-1.855,1,0,0
-0.1196,-0.1523,1.0178,-1.5725,2.3817,-1.7023,1,0,0
-0.1177,-0.1807,1.0037,-0.7557,0.8168,-1.5344,1,0,0
-0.1094,-0.1753,0.9973,0.3282,-0.6489,-0.8626,0,0,0
-0.1138,-0.1702,0.9963,-0.5496,-1.5649,-0.8397,0,0,0
-0.105,-0.1892,1.0076,0.7634,-1.8168,0.1756,0,0,0
-0.0886,-0.1704,1.0232,2.4275,-0.6794,0.4962,0,0,0
-0.1011,-0.1721,1.0156,2.4122,0.7328,0.6489,0,0,0
-0.1052,-0.1624,1.0208,1.3053,0.0916,1.3206,0,0,0
-0.105,-0.1638,1.0359,-0.2214,-0.1145,1.7939,0,0,0
-0.1077,-0.1619,1.0127,-1.8244,-0.3435,1.5878,0,0,0
-0.1086,-0.1704,1.0112,-3.4809,-0.9313,1.9924,0,0,0
-0.1099,-0.1675,1.0146,-4.2443,-1.3588,2.3893,0,0,0
-0.1035,-0.1721,1.0127,-4.1985,-1.1221,2.4885,0,0,0
-0.1018,-0.1804,1.0183,-3.2824,0.2137,1.9771,0,0,0
-0.1025,-0.1675,1.0181,-1.2748,0.6565,1.542,0,0,0
-0.1084,-0.1824,1.0183,-0.1756,0.9695,1.8855,0,0,0
-0.1057,-0.1655,1.0195,0.4046,0.6489,2.626,0,0,0
-0.104,-0.1697,1.0085,-0.2443,0.7099,3.313,0,0,0
-0.1125,-0.1558,1.0029,-1.0763,0.4809,3.5496,0,0,0
-0.114,-0.1519,0.9946,-2.8702,-0.0382,2.4809,0,0,0
-0.1089,-0.1741,0.9917,-2.4351,-0.8321,2.084,0,0,0
-0.1035,-0.1655,0.9973,-1.8931,-0.9847,2.2519,0,0,0
-0.1052,-0.166,0.9973,-1.8702,-1.2137,2.6641,0,0,0
-0.094,-0.1501,1.0051,-3.3053,-1.0992,3.4046,0,0,0
-0.0952,-0.136,1.0159,-5.8168,-0.9618,3.1298,0,0,0
-0.1006,-0.1484,0.998,-8.6107,-1.2443,2.4351,0,0,0
-0.0708,-0.1646,1.009,-8.7405,-1.5649,2.5802,0,0,0
-0.1042,-0.1648,1.0039,-7.4885,-1.9466,2.2137,0,0,0
-0.1008,-0.1851,1.0005,-5.2901,-2.1298,2.771,0,0,0
-0.1006,-0.1692,0.9995,-3.6565,-2.771,4.2214,0,0,0
-0.0964,-0.1521,0.9988,-4.8702,-2.8779,4.2977,0,0,0
-0.0979,-0.1514,1.0039,-7.9313,-3.1908,3.7863,0,0,0
-0.0918,-0.1626,1.0015,-11.5267,-3.8779,4.7405,0,0,0
-0.0879,-0.1562,1.0044,-14.0534,-2.9008,6.5649,0,0,0
-0.1072,-0.1724,0.9912,-14.3588,-3.8397,5.5038,0,0,0
-0.0637,-0.196,1.0098,-12.313,-4.9542,5.3511,0,0,0
-0.0793,-0.208,1.0171,-6.9237,-4.7252,4.6718,0,0,0
-0.0759,-0.179,1.0222,-3.2901,-3.7557,4.9237,0,0,0
-0.0896,-0.1731,1.0095,-3.7252,-2.7786,4.6183,0,0,0
-0.0947,-0.175,1.0015,-5.0534,-2.3664,3.9924,0,0,0
-0.1057,-0.1753,0.9973,-6.2595,-2.6718,4.9542,0,0,0
-0.0889,-0.1628,1.0029,-5.687,-2.8397,4.0992,0,0,0
-0.0913,-0.1611,1.0142,-4.2977,-3.4809,1.5496,0,0,0
-0.0925,-0.1807,1.0215,-1.7939,-3.4427,0.313,0,0,0
-0.0894,-0.1714,1.0229,-0.0229,-1.7557,-0.1832,0,0,0
-0.0972,-0.166,1.0137,0.2366,-0.8397,-0.4351,0,0,0
-0.1025,-0.1716,1.0139,-1.7557,-1.3588,-0.2977,0,0,0
-0.0859,-0.1665,1.0305,-4.3969,-0.3511,-0.0916,0,0,0
-0.0913,-0.1665,1.0212,-7.3664,1.6718,-1.4427,0,0,0
-0.0969,-0.1836,1.0308,-8.2977,1.7786,-1.4885,0,0,0
-0.1118,-0.2014,1.0173,-5.9466,1.1527,-1.6565,0,0,0
-0.1089,-0.1921,1.0051,-2.7557,-0.313,-2.1832,0,0,0
-0.1074,-0.1899,1.0017,-0.4427,-0.6565,-2.2061,0,0,0
-0.0955,-0.1841,1.0061,1.1145,-0.7252,-1.7634,0,0,0
-0.0962,-0.1875,1.0139,1.4733,-0.771,-0.7481,0,0,0
-0.1001,-0.1685,1.0063,-0.2061,-0.6794,0.1221,0,0,0
-0.1001,-0.1758,1.0049,-1.7634,-1.8473,0.5649,0,0,0
-0.0994,-0.167,1.0225,-3.4962,-1.5878,-0.4275,0,0,0
-0.0889,-0.175,1.0291,-3.8397,-0.8321,-1.145,0,0,0
-0.0872,-0.189,1.0293,-3.084,0.7786,-0.9237,0,0,0
-0.0991,-0.1882,1.012,-2.4885,1.2519,-0.4198,0,0,0
-0.1079,-0.2051,1.0093,-1.542,1.0458,-0.1603,0,0,0
-0.103,-0.188,1.0173,-0.9466,0.771,0.5191,0,0,0
-0.1084,-0.1895,1.0137,-0.3893,0.771,0.2366,0,0,0
-0.1028,-0.1816,1.0112,-0.313,0.1527,0.374,0,0,0
-0.1038,-0.1755,1.0095,-0.7786,0.8931,-0.1679,0,0,0
-0.1077,-0.1968,1.0105,0.9924,1.1069,-0.6412,0,0,0
-0.0884,-0.1663,1.0215,0.0763,1.7176,-0.3511,0,0,0
-0.0918,-0.1667,1.0237,-1.9542,1.9313,-0.7023,0,0,0
-0.084,-0.1895,1.0149,-2.7099,1.8015,1.9466,0,0,0
-0.0952,-0.1926,1.0056,-1.5954,1.9313,2.3664,0,0,0
-0.0964,-0.1755,1.0071,-1.2366,2.0305,2.1069,0,0,0
-0.0955,-0.1665,1.0029,-3.0611,3.0611,0.3053,0,0,0
-0.0908,-0.1775,1.0085,-4.374,3.0916,0.3053,0,0,0
-0.1016,-0.2041,1.0056,-2.2214,3.5725,1.5038,1,0,0
-0.1052,-0.1929,0.9998,0.7099,3.1908,2.8168,1,0,0
-0.1309,-0.1646,0.9592,0.7863,1.5344,1.3435,1,0,0
-0.1086,-0.1719,0.9807,1.229,-0.6183,0.0611,1,0,0
-0.0916,-0.1653,0.9988,-0.5496,-0.6718,-0.3969,1,0,0
-0.0874,-0.1511,1.01,-3.5115,0.8015,-0.687,1,0,0
-0.0911,-0.1528,1.0149,-6.3435,1.6183,-2.4046,1,0,0
-0.0859,-0.1577,1.0107,-8.9084,2.229,-3.6336,1,0,0
-0.0889,-0.1892,1.0183,-9.9924,3.7557,-4.5038,1,0,0
-0.094,-0.2134,1.0178,-7.3817,3.229,-3.1145,1,0,0
-0.1057,-0.2058,0.9958,-4.4885,3.4504,-1.2748,1,0,0
-0.1128,-0.196,0.9832,-2.0992,2.0458,-0.9008,1,0,0
-0.1113,-0.1777,0.9858,-2.5573,0.2901,-1.2672,1,0,0
-0.115,-0.1753,0.9866,-4.0916,-0.2748,-1.8015,1,0,0
-0.1089,-0.1985,0.9915,-3.8168,-1.1603,-2.5267,1,0,0
-0.116,-0.186,0.9995,-3.458,-1.0305,-3.2519,1,0,0
-0.1206,-0.1838,1.0029,-3.7099,-1.0687,-3.4733,1,0,0
-0.116,-0.1655,0.9966,-5.1527,-1.3893,-3.8244,1,0,0
-0.1206,-0.1885,1.0012,-6.3435,-2.1374,-4.1145,1,0,0
-0.1123,-0.1909,1.0093,-5.1069,-2.7405,-3.687,1,0,0
-0.1113,-0.2002,1.0144,-2.9695,-2.6489,-3.2977,1,0,0
-0.1116,-0.2012,1.0132,-0.6031,-2.5191,-2.6794,1,0,0
-0.1111,-0.2041,1.0115,1.9924,-2.3893,-2.2519,1,0,0
-0.1079,-0.1829,1.0054,3.3969,-1.9771,-1.4962,1,0,0
-0.1106,-0.1824,1.0061,2.0992,-2.1069,-1.5344,0,0,0
-0.1069,-0.1873,1.0117,2.0153,-1.7557,-0.916,0,0,0
-0.1082,-0.1765,1.0098,1.8092,-1.0305,-1.9008,0,0,0
-0.1038,-0.1758,1.0146,1.3359,-0.2519,-2.855,0,0,0
-0.1106,-0.1736,1.0227,0.9924,-0.1679,-3.5802,0,0,0
-0.1106,-0.1899,1.0127,1.374,-0.0382,-3.6641,0,0,0
-0.1042,-0.175,1.0183,0.9542,0.0305,-3.3282,0,0,0
-0.1089,-0.1694,1.01,-0.145,-0.0458,-3.8626,0,0,0
-0.105,-0.176,1.0054,-1.4656,0.0305,-4.6031,0,0,0
-0.0974,-0.1826,0.9934,-1.8779,0.4427,-4.7252,0,0,0
-0.1084,-0.2021,1.0208,0.0534,0.8321,-4.2977,0,0,0
-0.105,-0.2063,1.0044,1.8855,0.3359,-2.5191,0,0,0
-0.1104,-0.2012,1.0164,3.1527,0.0229,-1.4046,0,0,0
-0.0977,-0.1833,1.0176,3.5115,0.687,-1.0763,0,0,0
-0.1008,-0.1782,1.0029,2.7481,0.9389,-1.9008,0,0,0
-0.0974,-0.1746,1.0066,2.8321,0.5649,-2.3435,0,0,0
-0.0999,-0.1829,1.0061,3.1832,0.0611,-2.3588,0,0,0
-0.0984,-0.1748,1.0115,4.855,-0.1756,-2.9924,0,0,0
-0.0867,-0.1826,1.0322,7.1145,1.2748,-3.2061,0,0,0
-0.0842,-0.1641,1.0356,7.8931,4.6641,-3.9008,0,0,0
-0.0964,-0.1501,1.0359,6.3206,6.687,-4.3817,0,0,0
-0.1187,-0.1572,1.0164,4.5038,6.4427,-4.7252,0,0,0
-0.1191,-0.1812,1.0034,5.2214,5.6489,-5.0611,0,0,0
-0.1052,-0.177,1.0154,6.7023,7.0382,-5.313,0,0,0
-0.1038,-0.1672,1.0212,9.2595,7.3588,-6.3969,0,0,0
-0.1077,-0.1716,1.0198,12.0305,8.6565,-7.6336,0,0,0
-0.0979,-0.1736,1.0369,17.5573,11.4656,-9.9771,0,0,0
-0.0894,-0.1665,1.0579,24.7481,17.5954,-14.5038,0,0,0
-0.0996,-0.124,1.0559,29.4962,22.5267,-20.6718,0,0,0
-0.0955,-0.1011,1.0571,29.6107,28.1221,-25.8397,0,0,0
-0.1011,-0.1169,1.0479,32.3053,28.8855,-30.3435,0,0,0
-0.1436,-0.1497,1.0327,34.1756,28.1908,-32.3969,0,0,0
-0.1382,-0.1001,1.0203,36.9771,28.855,-34.4504,0,0,0
-0.1606,-0.0879,1.021,34.6794,30.0763,-34.2901,0,0,0
-0.1379,-0.1252,1.0256,35.2901,28.3511,-35.8244,0,0,0
-0.1819,-0.0833,1.0,34.8397,29.0534,-36.5191,0,0,0
-0.1636,-0.1079,1.0127,32.5191,29.1298,-34.2672,0,0,0
-0.1523,-0.126,1.0159,29.9466,26.4122,-29.4046,0,0,0
-0.1895,-0.1067,0.9858,27.8015,22.9618,-25.084,0,0,0
-0.1882,-0.0979,0.978,27.6947,18.2519,-22.5267,0,0,0
-0.1848,-0.1011,0.9807,28.4046,15.8855,-21.9695,0,0,0
-0.1804,-0.085,0.9875,28.1603,13.0916,-21.084,0,0,0
-0.1663,-0.0757,1.0095,24.2366,12.4351,-18.5878,0,0,0
-0.1724,-0.0959,0.9854,23.5038,10.9924,-16.1908,0,0,0
-0.1587,-0.072,1.0044,20.9771,12.1679,-14.9008,0,0,0
-0.1729,-0.0823,1.0027,19.374,12.1374,-13.1985,0,0,0
-0.188,-0.0911,0.9951,18.9542,11.4885,-12.0534,0,0,0
-0.1836,-0.1187,1.0056,20.0763,10.8473,-11.0534,0,0,0
-0.1953,-0.1279,1.0063,25.9618,10.8168,-9.0687,0,0,0
-0.1804,-0.1194,1.0022,32.5954,9.9008,-7.4122,0,0,0
-0.1873,-0.0645,1.012,33.7328,11.2137,-5.5267,0,0,0
-0.188,-0.042,1.0083,29.6031,10.4504,-3.374,0,0,0
-0.1846,-0.0313,1.0139,24.1756,10.7863,-2.4809,0,0,0
-0.188,-0.0432,1.0203,19.8473,11.6336,-1.8092,0,0,0
-0.1853,-0.0371,1.0217,17.9313,11.7634,-1.5115,0,0,0
-0.2075,-0.022,1.0012,15.3969,12.1145,-2.4962,0,0,0
-0.2087,-0.0083,1.0037,11.8397,11.5267,-3.2443,0,0,0
-0.2065,-0.0171,1.0103,7.542,10.4351,-1.9924,0,0,0
-0.2061,-0.0164,1.0095,4.0076,10.0458,0.5573,0,0,0
-0.2153,-0.0095,1.0081,0.313,10.4198,2.0687,0,0,0
-0.2183,0.0059,0.9956,-3.8168,10.1832,2.2824,0,0,0
-0.2192,-0.0212,0.9907,-8.1679,10.2443,1.3969,0,0,0
-0.2249,-0.0381,1.0042,-8.4351,9.7557,2.1679,0,0,0
-0.2021,-0.0259,1.0308,-9.5649,11.1679,5.4733,0,0,0
-0.2117,-0.0452,1.0315,-12.0763,11.9924,8.4046,0,0,0
-0.2109,-0.0337,1.0283,-14.5191,13.3359,11.7405,0,0,0
-0.2263,-0.0146,1.0149,-18.1756,14.3435,13.3053,0,0,0
-0.2271,0.0112,1.0,-25.5267,14.5191,14.4198,0,0,0
-0.251,-0.0051,0.9941,-35.2595,11.6565,17.2748,0,0,0
-0.2554,-0.0488,0.988,-43.7405,10.9847,20.5802,0,0,0
-0.2644,-0.082,0.9778,-43.5802,9.6031,19.6412,0,0,0
-0.2539,-0.0735,0.9883,-40.687,8.2748,18.0763,0,0,0
-0.2266,-0.0596,1.0,-38.7481,7.5725,16.458,0,0,0
-0.2544,-0.0042,0.9885,-42.6565,5.9542,17.9237,0,0,0
-0.2649,-0.0742,0.9478,-44.0,5.8397,17.6336,0,0,0
-0.2686,-0.0828,0.9565,-43.6794,2.6489,17.5725,0,0,0
-0.2637,-0.0903,0.9802,-39.542,3.0076,14.3893,0,0,0
-0.2495,-0.075,0.9902,-34.0763,3.313,11.5115,0,0,0
-0.2046,-0.0823,1.0085,-29.4504,5.458,8.8931,0,0,0
-0.2356,-0.0759,0.9976,-28.1527,8.1679,7.4885,0,0,0
-0.2515,-0.0933,0.9778,-26.6947,8.1221,7.9618,0,0,0
-0.2844,-0.0806,0.96,-26.4733,5.9313,8.0,0,0,0
-0.2622,-0.1277,0.9592,-24.084,3.3969,6.0382,0,0,0
-0.2791,-0.0994,0.9648,-21.6031,1.3893,6.9008,0,0,0
-0.2576,-0.1084,0.9668,-20.3282,2.0687,6.1679,0,0,0
-0.2478,-0.1372,0.9734,-17.1985,3.1527,3.8779,0,0,0
-0.2566,-0.1343,0.9658,-14.9466,1.7557,3.6183,0,0,0
-0.259,-0.1528,0.9612,-13.0458,0.2214,3.7252,0,0,0
-0.2534,-0.1384,0.9597,-12.8702,-1.9008,5.4504,0,0,0
-0.2554,-0.1484,0.9773,-11.8931,-2.8931,6.6031,0,0,0
-0.2507,-0.1418,0.9924,-11.9924,-2.8702,6.3511,0,0,0
-0.2375,-0.1277,0.9917,-13.9313,-1.6947,5.9924,0,0,0
-0.2322,-0.1589,0.9851,-15.9084,-1.0763,6.7176,0,0,0
-0.2563,-0.1731,0.9805,-13.7786,-2.0534,7.5954,0,0,0
-0.2554,-0.1685,0.9829,-8.6947,-1.458,6.0687,0,0,0
-0.2537,-0.1492,0.9919,-5.2748,-1.7634,4.7939,0,0,0
-0.252,-0.1516,0.9929,-3.1832,-1.2214,3.8015,0,0,0
-0.2444,-0.146,0.989,-2.8626,-0.6107,4.9847,0,0,0
-0.249,-0.1367,0.9856,-5.3282,0.7405,5.4733,0,0,0
-0.26,-0.1211,0.979,-8.4198,0.2748,6.0,0,0,0
-0.2668,-0.1455,0.9661,-12.2901,-1.7939,6.8397,0,0,0
-0.3049,-0.1584,0.9639,-10.6641,-5.3817,8.916,0,0,0
-0.2534,-0.1682,0.9795,-8.2214,-5.9771,8.1985,0,0,0
-0.249,-0.1667,0.981,-5.6489,-5.6565,7.5115,0,0,0
-0.2495,-0.1565,0.991,-2.7328,-4.1832,7.0382,0,0,0
-0.25,-0.1504,0.9905,-0.5878,-3.2748,5.855,0,0,0
-0.2578,-0.1438,0.981,1.6107,-4.1298,5.3359,0,0,0
-0.2615,-0.1384,0.9834,4.313,-4.5115,5.4351,0,0,0
-0.2568,-0.1296,0.9895,7.3893,-5.0153,4.8168,0,0,0
-0.2498,-0.1265,0.999,10.7176,-4.3282,3.542,0,0,0
-0.2437,-0.1162,1.0032,13.2595,-2.5878,1.542,0,0,0
-0.2493,-0.1072,1.0085,15.0763,-1.374,-1.313,0,0,0
-0.2461,-0.1101,1.0017,15.374,-0.4733,-2.8702,0,0,0
-0.2407,-0.1008,1.0117,13.916,0.5115,-2.3053,0,0,0
-0.2275,-0.0769,1.0083,8.7328,3.229,-1.4733,0,0,0
-0.2546,-0.0925,0.9885,3.4198,4.0992,-0.0229,0,0,0
-0.2695,-0.0923,0.9775,-1.229,2.145,0.7557,0,0,0
-0.2747,-0.1135,0.9724,-4.4733,0.1908,1.8779,0,0,0
-0.259,-0.1257,0.988,-5.9084,-0.7863,2.4046,0,0,0
-0.2507,-0.136,0.9954,-6.6336,-0.0076,2.6718,0,0,0
-0.2537,-0.1521,0.9927,-5.5267,0.7252,2.9542,0,0,0
-0.2583,-0.146,0.9919,-2.8092,0.8626,3.5725,0,0,0
-0.2607,-0.1396,0.9851,-1.2672,0.0458,3.9542,0,0,0
-0.2556,-0.1396,0.9907,-1.4351,0.0,5.0458,0,0,0
-0.2651,-0.1284,0.9963,-1.5344,0.374,5.2443,0,0,0
-0.2617,-0.1257,0.9966,-0.5802,-0.1298,4.5115,0,0,0
-0.2581,-0.1125,1.002,-0.0458,0.1756,3.1756,0,0,0
-0.2476,-0.1099,1.0117,-1.1679,0.4046,2.6718,0,0,0
-0.2527,-0.1052,0.9978,-2.3206,0.9771,1.9237,0,0,0
-0.2534,-0.1135,0.9951,-3.5496,0.6412,1.8244,0,0,0
-0.2549,-0.1379,0.9976,-3.8931,0.6641,2.5649,0,0,0
-0.2415,-0.1401,0.991,-1.229,1.1145,3.9542,0,0,0
-0.2498,-0.1238,0.9866,0.771,1.8321,4.2901,0,0,0
-0.2561,-0.1064,0.9834,0.5115,1.7939,3.9847,0,0,0
-0.2642,-0.0957,0.9814,-0.1985,0.8473,3.626,0,0,0
-0.2556,-0.0894,0.9753,-0.8931,0.1221,3.0229,0,0,0
-0.2488,-0.0828,0.9746,-0.8626,0.0153,1.458,0,0,0
-0.2488,-0.0774,0.9746,-1.4351,-0.5954,-0.1298,0,0,0
-0.2502,-0.0786,0.978,-1.6718,-0.855,-1.4885,0,0,0
-0.2439,-0.0972,0.991,-0.2901,-0.6718,-2.8855,0,0,0
-0.2429,-0.1001,0.9905,2.9542,0.0229,-4.9084,0,0,0
-0.2478,-0.1062,0.9912,6.3435,0.5267,-6.0382,0,0,0
-0.2544,-0.103,0.991,9.7863,0.6565,-7.2061,0,0,0
-0.2463,-0.0901,0.9888,14.4656,0.7252,-10.0,0,0,0
-0.2625,-0.0505,0.9941,16.2748,1.0992,-12.0916,0,0,0
-0.2368,-0.0593,0.9976,16.4504,3.771,-13.1756,0,0,0
-0.2356,-0.0635,0.9895,14.626,5.4351,-13.687,0,0,0
-0.2573,-0.0386,0.9675,8.7328,3.7786,-12.6565,0,0,0
-0.2783,-0.0833,0.9451,4.8321,0.6794,-10.6641,0,0,0
-0.2717,-0.1008,0.9663,4.3053,-2.7328,-8.7023,0,0,0
-0.2471,-0.0854,0.9724,2.626,-4.1832,-7.7176,0,0,0
-0.2422,-0.0955,0.9805,-0.3206,-3.4504,-6.2977,0,0,0
-0.2522,-0.1208,0.9944,-2.1679,-2.9008,-4.8244,0,0,0
-0.2598,-0.1206,0.9949,-2.542,-3.6641,-2.9695,0,0,0
-0.25,-0.1213,1.0066,-2.2595,-3.5038,-1.4504,0,0,0
-0.2473,-0.1267,1.0247,-0.458,-1.8931,-0.9008,0,0,0
-0.2424,-0.1064,1.019,0.6412,0.1298,-0.5267,0,0,0
-0.2532,-0.0942,1.0051,-0.4962,1.3817,-0.5267,0,0,0
-0.2656,-0.103,0.9924,-1.771,1.0153,-1.1985,0,0,0
-0.2717,-0.1047,0.9868,-2.9237,-0.4275,-1.4427,0,0,0
-0.2688,-0.1125,0.9805,-4.2748,-1.5573,-1.3893,0,0,0
-0.2563,-0.1194,0.9973,-5.4962,-2.0305,-0.855,0,0,0
-0.2566,-0.1218,1.0039,-5.4198,-1.1756,0.2137,0,0,0
-0.2598,-0.1213,1.0134,-4.7176,-0.3969,0.1908,0,0,0
-0.2593,-0.1223,1.0115,-3.5878,0.771,0.3435,0,0,0
-0.2598,-0.1157,1.0127,-1.4275,2.1069,0.5725,0,0,0
-0.2649,-0.1001,1.0142,-1.0916,3.9313,-0.0076,0,0,0
-0.2727,-0.095,1.0149,-2.458,4.6947,-0.6412,0,0,0
-0.2771,-0.0972,1.0083,-3.9237,5.1756,-1.0611,0,0,0
-0.2766,-0.0972,1.0042,-5.9542,5.3282,-1.626,0,0,0
-0.2761,-0.1121,1.0039,-7.3206,5.1985,-1.9847,0,0,0
-0.2717,-0.1235,1.0076,-6.2443,5.7176,-2.4275,0,0,0
-0.2659,-0.1262,1.0254,-5.2214,7.458,-2.1832,0,0,0
-0.2585,-0.1316,1.0308,-1.5802,9.3969,-2.1756,0,0,0
-0.2605,-0.1118,1.0186,0.8321,12.3435,-2.8626,0,0,0
-0.2632,-0.1167,1.0095,1.6565,14.1832,-3.2137,0,0,0
-0.2717,-0.1111,0.9893,2.9695,15.1298,-3.3511,0,0,0
-0.2793,-0.1023,0.9702,2.3435,14.542,-2.9237,0,0,0
-0.29,-0.0967,0.9507,1.2443,12.916,-2.8931,0,0,0
-0.2832,-0.1086,0.9553,0.4427,9.9924,-2.2977,0,0,0
-0.2715,-0.0906,0.9473,-0.7481,7.9542,-1.855,0,0,0
-0.2825,-0.0957,0.9409,-2.9542,5.6489,-1.6718,0,0,0
-0.2766,-0.1033,0.949,-2.6565,4.542,-0.687,0,0,0
-0.2749,-0.0923,0.9575,-1.3893,3.8015,-1.374,0,0,0
-0.281,-0.0847,0.9512,-2.2366,2.3053,-1.5038,0,0,0
-0.2715,-0.0952,0.9626,-2.8702,0.8244,-1.8168,0,0,0
-0.2603,-0.1045,0.9687,-3.1374,0.6718,-1.1527,0,0,0
-0.2563,-0.1023,0.9746,-2.5267,1.1679,-0.8244,0,0,0
-0.2673,-0.1003,0.9673,-1.7481,1.3282,-0.542,0,0,0
-0.2754,-0.105,0.9666,-1.2061,0.4733,-0.8779,0,0,0
-0.2744,-0.1055,0.9692,-0.6718,-0.0076,-0.6336,0,0,0
-0.2722,-0.1003,0.9812,-0.9466,-0.1069,-0.4504,0,0,0
-0.2778,-0.0989,0.9707,-0.5267,-0.0916,-0.5649,0,0,0
-0.2832,-0.0898,0.9629,-0.8321,-0.8779,-0.9542,0,0,0
-0.2761,-0.0894,0.9814,-1.8702,-0.855,-1.4656,0,0,0
-0.2732,-0.0974,0.9795,-2.8244,-0.9389,-2.5191,0,0,0
-0.2847,-0.1062,0.9792,-2.8015,-1.6031,-2.4427,0,0,0
-0.2834,-0.1123,0.9673,-2.3053,-2.6031,-1.855,0,0,0
-0.2793,-0.1208,0.9741,-2.9466,-3.2366,-0.3664,0,0,0
-0.2666,-0.1125,0.99,-3.542,-2.7328,0.7786,0,0,0
-0.2644,-0.106,0.99,-3.9313,-1.229,0.8015,0,0,0
-0.2788,-0.1055,0.9856,-3.8015,-0.9008,-0.0076,0,0,0
-0.2839,-0.1135,0.9832,-2.8855,-0.7176,-0.771,0,0,0
-0.2832,-0.1182,0.9714,-0.8702,-1.2366,-0.4046,0,0,0
-0.2808,-0.1055,0.9683,0.4046,-1.6565,0.0611,0,0,0
-0.2869,-0.0972,0.958,-0.5191,-2.3206,-0.2137,0,0,0
-0.2939,-0.1038,0.9565,-1.9847,-3.6489,-0.1679,0,0,0
-0.2805,-0.0962,0.9673,-3.5802,-4.855,0.313,0,0,0
-0.2773,-0.1062,0.9778,-3.4885,-4.458,0.4046,0,0,0
-0.2781,-0.0989,0.9868,-2.5038,-3.7023,-0.3664,0,0,0
-0.2825,-0.103,0.9846,-1.0916,-2.9924,-1.7634,0,0,0
-0.2849,-0.104,0.9773,0.1679,-3.2137,-2.0916,0,0,0
-0.2839,-0.1086,0.9768,-0.4122,-3.1527,-2.1985,0,0,0
-0.2888,-0.1165,0.98,-1.2443,-3.7786,-1.1908,0,0,0
-0.2852,-0.1179,0.9822,-1.8779,-4.229,-0.4962,0,0,0
-0.2822,-0.1082,0.99,-2.1298,-4.1145,-0.6412,0,0,0
-0.2869,-0.1106,0.9895,-2.2672,-4.5496,-1.4198,0,0,0
-0.2786,-0.1172,0.9822,-0.9466,-5.084,-1.1908,0,0,0
-0.2795,-0.1155,0.9805,1.2214,-5.0763,-0.9008,0,0,0
-0.2874,-0.1196,0.9783,3.4656,-5.3817,-0.8015,0,0,0
-0.2913,-0.1069,0.9736,5.2519,-6.1908,-0.8321,0,0,0
-0.2949,-0.1023,0.9773,5.687,-7.4198,-0.916,0,0,0
-0.2891,-0.0942,0.97,5.9084,-9.2748,-2.0687,0,0,0
-0.2871,-0.0835,0.9702,5.7405,-11.145,-2.6412,0,0,0
-0.2778,-0.0823,0.9778,4.6947,-12.6107,-2.9008,0,0,0
-0.2578,-0.0833,1.0051,2.626,-11.7557,-2.626,0,0,0
-0.2463,-0.0833,1.0261,0.5496,-8.4275,-1.9771,0,0,0
-0.2441,-0.0823,1.0269,-0.3588,-4.5954,-2.3053,0,0,0
-0.2642,-0.0847,1.0151,-0.2901,-2.5878,-3.4198,0,0,0
-0.2739,-0.0872,0.9905,0.374,-2.626,-4.6412,0,0,0
-0.2627,-0.0886,0.9944,0.5344,-3.9847,-4.2214,0,0,0
-0.259,-0.0867,0.9973,0.145,-3.9771,-3.6412,0,0,0
-0.2441,-0.0977,1.0005,-0.7405,-3.2443,-2.3435,0,0,0
-0.2393,-0.092,1.0073,-0.8779,-1.6336,-2.1374,0,0,0
-0.2451,-0.0947,1.0022,-1.7481,-0.1679,-2.4351,0,0,0
-0.2549,-0.0999,0.9988,-1.8015,0.1374,-2.9466,0,0,0
-0.2571,-0.1179,1.0002,-1.5725,-0.458,-1.3893,0,0,0
-0.2483,-0.1077,0.9976,-0.7252,0.2366,0.0611,0,0,0
-0.2595,-0.094,0.9973,0.0305,0.458,-0.2519,0,0,0
-0.261,-0.0823,0.9819,-0.2137,0.5191,-0.7252,0,0,0
-0.2583,-0.1089,0.9907,-0.3893,0.2366,-0.6565,0,0,0
-0.2549,-0.1094,0.9832,1.5191,0.1374,-0.3435,0,0,0
-0.2578,-0.1055,0.9841,1.3817,0.0611,0.3588,0,0,0
-0.2527,-0.094,0.9839,0.2672,-0.3435,1.4885,0,0,0
-0.2515,-0.0801,0.9946,-2.0229,-0.0763,1.916,0,0,0
-0.2542,-0.0662,0.991,-4.5725,-0.1145,1.1221,0,0,0
-0.2605,-0.0803,0.9873,-6.4656,-0.1679,-0.2824,0,0,0
-0.2639,-0.0994,0.9971,-5.7099,-0.3053,-1.0611,0,0,0
-0.2612,-0.1187,0.9963,-3.8397,0.0305,-1.3664,0,0,0
-0.2656,-0.1174,1.0002,-0.9771,-0.3359,-0.5038,0,0,0
-0.2493,-0.1123,1.0112,-0.1298,0.916,1.1603,0,0,0
-0.2493,-0.0999,1.0034,-0.3969,2.1374,2.1756,0,0,0
-0.2563,-0.0857,0.9983,-2.1527,3.3817,1.4809,0,0,0
-0.2656,-0.0769,0.9956,-3.916,3.3053,0.6412,0,0,0
-0.2737,-0.0796,0.9912,-4.9695,2.2443,-0.1221,0,0,0
-0.2703,-0.0947,1.0076,-5.7786,1.9618,0.0305,0,0,0
-0.2625,-0.1145,0.9971,-2.4046,3.0,0.5038,0,0,0
-0.2712,-0.1028,0.9836,-0.0687,2.8397,0.6031,0,0,0
-0.2776,-0.103,0.98,0.9847,2.313,-0.0763,0,0,0
-0.2688,-0.0938,0.9949,0.6412,1.8779,0.2519,0,0,0
-0.2598,-0.0974,0.9861,0.9466,1.9847,-0.1069,0,0,0
-0.2517,-0.084,0.97,0.6336,1.7023,-0.1603,0,0,0
-0.2522,-0.0796,0.9717,-0.3435,2.2366,-1.2824,0,0,0
-0.2612,-0.0869,0.9646,-1.7634,1.7481,-2.4275,0,0,0
-0.2695,-0.0957,0.9695,-1.8168,0.7405,-2.5115,0,0,0
-0.2654,-0.1072,0.9751,-1.855,0.0458,-1.4198,0,0,0
-0.2654,-0.1084,0.9717,-0.3664,-0.4427,-0.084,1,0,0
-0.2607,-0.0913,0.9814,0.5573,-0.9389,0.4122,1,0,0
-0.2588,-0.0769,0.9858,0.4198,-0.9008,-0.0382,1,0,0
-0.2644,-0.0842,0.981,-0.5115,-0.6718,-0.7481,1,0,0
-0.2642,-0.0828,0.9849,-2.1145,-0.8015,-1.0229,1,0,0
-0.2683,-0.0923,0.9805,-2.4427,-0.6412,-1.4198,1,0,0
-0.2625,-0.1011,0.9878,-2.3206,-0.9618,-1.1221,1,0,0
-0.2649,-0.1028,0.9873,-1.3435,-0.4351,-0.687,1,0,0
-0.2668,-0.0967,0.989,0.6565,-0.1679,-0.8779,1,0,0
-0.2637,-0.095,0.9744,1.5267,-0.4046,-0.6947,1,0,0
-0.2615,-0.0867,0.9836,0.626,-0.7405,-0.3511,1,0,0
-0.2651,-0.0791,0.9871,-1.2672,-0.7176,-0.5267,1,0,0
-0.2661,-0.0793,0.9839,-3.5573,-1.2824,-0.0229,1,0,0
-0.2625,-0.0881,0.9915,-5.6107,-1.9313,0.0153,1,0,0
-0.2632,-0.106,0.988,-5.0534,-1.7023,-0.4504,1,0,0
-0.2615,-0.1042,0.9802,-4.2061,-1.9695,-0.3206,1,0,0
-0.2683,-0.104,0.9773,-3.2366,-2.0382,-0.3511,1,0,0
-0.2595,-0.1021,0.97,-3.1679,-3.0382,-0.5267,1,0,0
-0.2678,-0.0945,0.9495,-3.2519,-3.5496,-0.5496,1,0,0
-0.2744,-0.0938,0.9485,-3.7328,-5.2672,-1.3206,1,0,0
-0.271,-0.1023,0.9463,-4.2672,-7.3588,-1.4046,1,0,0
-0.2732,-0.1018,0.9419,-3.1145,-9.7786,-2.229,1,0,0
-0.2725,-0.1084,0.9387,-1.9084,-12.9542,-2.2443,1,0,0
-0.2793,-0.0984,0.9385,-1.3969,-16.6489,-2.374,1,0,0
-0.2756,-0.0964,0.9402,-1.7023,-20.6489,-1.9847,1,0,0
-0.2715,-0.1008,0.9424,-2.6718,-24.3817,-1.0076,1,0,0
-0.2625,-0.1028,0.9612,-2.4427,-27.8015,-0.8397,1,0,0
-0.248,-0.0857,0.9734,-2.9008,-29.9389,0.0076,1,0,0
-0.2417,-0.0803,1.0002,-3.3282,-31.2901,0.5954,1,0,0
-0.4272,-0.0527,0.9031,-10.9847,-36.3435,4.6565,1,0,0
-0.0652,-0.0437,1.0525,-11.9618,-41.8168,2.145,1,0,0
-0.2363,-0.1069,1.0427,-12.5725,-36.0916,1.1527,1,0,0
-0.1597,-0.1042,1.0791,-10.0153,-27.3511,-0.2061,1,0,0
-0.1931,-0.093,1.0735,-9.4504,-23.1374,-2.2366,1,0,0
-0.1929,-0.0784,1.0664,-7.2824,-19.3359,-5.374,1,0,0
-0.2131,-0.1023,1.0479,-6.4809,-18.4733,-5.916,1,0,0
-0.1682,-0.0972,1.0454,-5.1145,-15.5954,-6.1985,1,0,0
-0.2151,-0.1191,1.011,-3.5038,-16.0382,-6.0763,1,0,0
-0.2024,-0.1101,1.0012,-3.687,-17.2443,-5.5496,1,0,0
-0.1892,-0.1023,1.0032,-4.084,-18.2214,-5.1298,1,0,0
-0.1833,-0.1548,0.9985,-4.6412,-21.9695,-2.1527,1,0,0
-0.1748,-0.1506,0.9995,-2.855,-21.9618,-0.0992,1,0,0
-0.1201,-0.1584,1.0225,-1.3893,-20.9237,2.7252,1,0,0
-0.1499,-0.1187,1.0425,-0.2901,-16.9466,2.4046,1,0,0
-0.1375,-0.1167,1.0432,0.7252,-12.1069,0.7481,1,0,0
-0.1533,-0.1091,1.0205,2.1985,-10.5038,-0.3588,1,0,0
