ax,ay,az,gx,gy,gz,left_click,right_click
0.0249,0.0942,1.0168,-4.3588,0.7405,-2.8779,0,0,0
0.0266,0.0833,1.0215,-5.1985,1.0534,-2.2824,0,0,0
0.0208,0.0796,1.0388,-4.7252,1.4962,-1.2443,0,0,0
0.0125,0.0757,1.0256,-3.0382,1.2977,-0.6183,0,0,0
0.0129,0.0774,1.0232,-1.1221,0.0229,-0.1679,0,0,0
0.0132,0.0828,1.0208,0.0076,-1.1603,0.0305,0,0,0
0.0256,0.0842,1.0168,-0.1985,-1.9542,0.4427,0,0,0
0.0247,0.0957,1.032,-1.1221,-1.3359,1.1756,0,0,0
0.03,0.0979,1.0349,-1.7634,-0.313,1.1298,0,0,0
0.0298,0.103,1.0317,-2.7405,0.8702,0.9237,0,0,0
0.0288,0.1018,1.0352,-2.6489,1.1679,0.2443,0,0,0
0.0239,0.1021,1.0139,-2.1298,1.2061,-0.8626,0,0,0
0.0205,0.0957,1.0015,-1.8015,-0.5496,-1.6489,0,0,0
0.0164,0.084,1.0078,-1.3893,-1.5573,-1.8015,0,0,0
0.0154,0.0879,1.0149,-0.542,-2.9084,-1.3359,0,0,0
0.0234,0.082,1.0342,-0.0305,-2.6031,-0.3664,0,0,0
0.0227,0.0854,1.0449,-0.313,-1.8321,0.4427,0,0,0
0.0215,0.0935,1.0354,-0.458,-0.5115,0.7328,0,0,0
0.0244,0.0867,1.0142,-0.2366,0.0611,0.6412,0,0,0
0.0222,0.0898,1.0037,-1.0153,-0.6183,0.8855,0,0,0
0.0232,0.0867,1.0039,-1.8015,-0.9237,0.626,0,0,0
0.022,0.0847,1.0081,-1.2748,-1.9618,1.5038,0,0,0
0.0242,0.0969,1.0312,-2.2519,-1.916,1.7939,0,0,0
0.031,0.0974,1.0366,-2.8931,-1.229,1.9389,0,0,0
0.0337,0.1067,1.0322,-3.1603,-0.4733,1.374,0,0,0
0.0349,0.1169,1.0269,-2.9542,0.1832,0.2595,0,0,0
0.0396,0.1106,1.0227,-3.0611,-0.1069,-1.1298,0,0,0
0.033,0.1147,1.0212,-2.8397,0.2366,-2.8015,0,0,0
0.0225,0.1038,1.0103,-2.7786,-0.2748,-4.3969,0,0,0
0.0178,0.0901,1.0107,-3.0458,-0.9084,-4.8092,0,0,0
0.0137,0.0776,1.0247,-3.6031,-1.0916,-3.1679,0,0,0
0.0078,0.0747,1.0232,-3.5649,-1.855,-0.8397,0,0,0
0.0125,0.0735,1.0281,-2.542,-2.458,0.9084,0,0,0
0.01,0.0884,1.0247,-1.0687,-3.6489,1.1145,0,0,0
0.021,0.0984,1.0374,0.3282,-4.1145,0.084,0,0,0
0.0347,0.0962,1.0466,1.3359,-3.7328,-0.4809,0,0,0
0.0376,0.0991,1.0439,0.3282,-2.8168,-0.8931,0,0,0
0.0413,0.0952,1.043,-0.2901,-1.2672,-1.0763,0,0,0
0.0386,0.0938,1.0439,-1.3664,0.0153,-1.0763,0,0,0
0.0317,0.0806,1.0303,-2.3511,0.7557,-1.0382,0,0,0
0.0283,0.085,1.0298,-3.3053,0.0687,-0.2977,0,0,0
0.0261,0.082,1.0413,-3.0458,-0.0534,0.3282,0,0,0
0.0254,0.0876,1.0422,-2.6107,0.542,0.7939,0,0,0
0.0215,0.0813,1.0393,-2.2137,0.687,0.8168,0,0,0
0.019,0.0867,1.0195,-1.0763,0.1603,1.4046,0,0,0
0.0266,0.0903,1.0208,-0.8931,-0.2595,1.8855,0,0,0
0.0291,0.084,1.032,-1.5038,-0.7252,2.6489,0,0,0
0.0256,0.0872,1.0286,-1.7328,-0.5191,2.8855,0,0,0
0.0222,0.0923,1.0273,-2.1908,0.3817,3.2595,0,0,0
0.0251,0.0889,1.0295,-2.5725,0.6794,3.5802,0,0,0
0.0303,0.0942,1.0239,-3.313,1.0763,3.9313,0,0,0
0.0278,0.0933,1.0186,-4.3359,0.8244,3.8779,0,0,0
0.0293,0.1003,1.0239,-5.2672,2.0458,3.4962,0,0,0
0.0325,0.0969,1.0315,-5.9542,2.916,2.7328,0,0,0
0.0247,0.0906,1.0256,-6.6183,3.6031,1.8931,0,0,0
0.0251,0.0835,1.0215,-6.1527,3.2137,1.7634,0,0,0
0.0278,0.0779,1.0383,-4.1908,2.5725,1.8397,0,0,0
0.0264,0.0798,1.0273,-1.4046,1.0992,2.0611,0,0,0
0.019,0.0935,1.0125,0.8779,-0.9542,1.0687,0,0,0
0.0198,0.0916,1.0229,1.7023,-2.145,-0.1145,0,0,0
0.0237,0.0811,1.0413,1.2595,-1.687,-0.7863,0,0,0
0.0229,0.0642,1.05,-0.1603,-0.2214,0.1221,0,0,0
0.0208,0.0601,1.0522,-1.2595,1.7557,2.4198,0,0,0
0.0188,0.0583,1.0566,-2.7786,4.1679,4.9542,0,0,0
0.0125,0.0471,1.0378,-3.2214,6.1298,7.9466,0,0,0
0.0,0.0334,1.0398,-4.6031,6.0916,10.916,0,0,0
-0.0144,0.0173,1.0435,-5.2672,6.5344,15.4351,0,0,0
-0.0144,0.0208,1.0361,-5.3359,6.4275,21.3435,0,0,0
-0.0034,0.0242,1.0261,-7.3511,7.1679,28.0458,0,0,0
0.0039,0.0493,1.0181,-9.4275,8.9084,34.0458,0,0,0
-0.0088,0.072,1.0068,-13.2366,10.4656,36.7099,0,0,0
-0.009,0.0715,0.9819,-14.9695,10.4656,38.2519,0,0,0
0.0007,0.0718,0.9875,-16.6718,8.7863,40.3664,0,0,0
0.0059,0.0791,0.9905,-16.9695,6.771,42.855,0,0,0
0.0159,0.0894,1.002,-15.9008,5.9618,44.1527,0,0,0
0.0195,0.1238,1.0015,-15.2595,5.7176,42.7939,0,0,0
0.0193,0.1287,0.9932,-14.8931,5.8168,40.145,0,0,0
0.0149,0.0857,0.9651,-11.7252,3.0763,39.0992,0,0,0
0.0217,0.0669,0.9744,-19.0,2.0153,38.2977,0,0,0
0.0254,0.0659,1.0317,-19.7634,1.7328,38.916,0,0,0
0.0281,0.0703,1.0781,-19.9618,5.1679,39.1679,0,0,0
0.0134,0.061,1.0842,-19.0458,7.374,36.8931,0,0,0
0.0115,0.0615,1.0879,-16.2901,8.7252,34.2519,0,0,0
0.0146,0.0579,1.061,-13.4504,8.0534,31.0458,0,0,0
0.0183,0.0569,1.0525,-8.9542,6.0458,27.6107,0,0,0
0.0178,0.0625,1.0454,-4.916,3.3817,23.313,0,0,0
0.0149,0.0681,1.0637,-2.3359,1.6183,19.3817,0,0,0
0.0154,0.0474,1.0588,-1.6641,-0.0458,17.542,0,0,0
0.0183,0.0352,1.0503,-0.3435,-0.8931,17.0687,0,0,0
0.021,0.0383,1.041,0.6794,-0.8702,16.9618,0,0,0
0.0232,0.0454,1.0305,0.2519,-1.0076,16.6336,0,0,0
0.0269,0.0667,1.0464,0.3893,0.1908,15.2443,0,0,0
0.0332,0.0808,1.0322,0.6718,0.5496,11.9695,0,0,0
0.0337,0.0828,1.0334,0.1985,0.7252,8.458,0,0,0
0.0225,0.0735,1.0317,-0.4046,0.4046,5.0,0,0,0
0.0146,0.0728,1.0337,0.7328,0.6107,2.2748,0,0,0
0.0085,0.0483,1.0286,0.2824,0.6718,1.6107,0,0,0
0.0037,0.0398,1.0205,-0.7557,0.458,1.9924,0,0,0
0.0029,0.0396,1.0156,-2.4504,1.5496,3.1069,0,0,0
-0.0029,0.0293,1.0039,-2.9847,1.3817,4.4351,0,0,0
-0.01,0.032,0.9951,-3.2977,0.9237,5.7634,0,0,0
-0.0015,0.0378,0.9934,-3.0611,-0.8779,5.687,0,0,0
0.0,0.0522,1.0259,-3.8473,-0.6336,5.6107,0,0,0
0.0127,0.0535,1.0259,-3.4122,0.4046,4.9618,0,0,0
0.0068,0.0586,1.0215,-3.5878,1.6412,4.1527,0,0,0
0.0107,0.0667,1.0403,-7.0229,3.7634,4.0534,0,0,0
0.0071,0.0559,1.0305,-8.8626,6.0687,3.7328,0,0,0
0.0015,0.0483,1.0352,-8.9618,7.8702,3.1603,0,0,0
-0.01,0.0488,1.0215,-6.6031,8.3359,2.3664,0,0,0
-0.0195,0.0452,1.001,-3.7405,5.855,1.3053,0,0,0
-0.019,0.0403,0.9841,-1.3588,0.916,0.6489,0,0,0
-0.0264,0.0374,0.9966,0.6718,-3.0458,-0.1221,0,0,0
-0.0286,0.0383,1.0195,1.6412,-5.0076,-0.2214,0,0,0
-0.0146,0.0239,1.0247,1.626,-6.0687,-0.1069,0,0,0
-0.0112,0.0288,1.0344,1.7023,-6.0687,0.1985,0,0,0
-0.0122,0.0344,1.0386,1.626,-5.3817,0.3435,0,0,0
0.0029,0.0356,1.0474,1.0229,-4.145,1.3664,0,0,0
0.0054,0.0393,1.0605,0.1298,-2.2061,1.458,0,0,0
-0.0017,0.0444,1.0322,-1.0153,-0.6031,1.0305,0,0,0
0.0039,0.0415,1.0342,-2.5191,0.3359,1.2061,0,0,0
0.0061,0.0381,1.0427,-3.8321,0.8779,2.2366,0,0,0
0.0002,0.0425,1.0322,-3.771,1.1985,2.3282,0,0,0
0.0015,0.0461,1.0347,-2.2137,0.7939,1.7634,0,0,0
0.0063,0.0583,1.0286,-1.0153,0.2748,1.1985,0,0,0
0.01,0.0557,1.0266,-0.5649,0.1527,-0.1908,0,0,0
0.011,0.0559,1.0269,-0.229,0.0534,-1.7023,0,0,0
0.0083,0.0581,1.0144,-0.8397,-0.5954,-2.855,0,0,0
0.0066,0.0449,1.0298,-1.0611,-0.8855,-2.7328,0,0,0
-0.0029,0.042,1.031,-0.1221,-1.1832,-3.084,0,0,0
-0.0039,0.0415,1.0232,1.3664,-0.9008,-2.2672,0,0,0
-0.0037,0.0479,1.0181,1.5954,-1.3435,-1.5802,0,0,0
-0.0044,0.0601,1.0173,1.458,-1.3664,-2.2595,0,0,0
-0.0005,0.063,1.0107,0.0153,-1.4809,-3.3282,0,0,0
-0.0012,0.0549,1.02,-1.313,-1.6794,-4.4962,0,0,0
-0.0042,0.04,1.0259,-1.7252,-0.8092,-3.7481,0,0,0
-0.0083,0.0305,1.0205,-1.9008,-0.5878,-3.4885,0,0,0
-0.011,0.0344,1.0259,-1.1221,-1.4198,-1.8855,0,0,0
0.0007,0.0388,1.0225,0.1221,-2.5954,-0.9847,0,0,0
0.0115,0.0562,1.0151,1.1145,-4.0153,-0.687,0,0,0
0.0081,0.0701,1.0261,1.2672,-4.6412,-1.9847,0,0,0
0.0146,0.0669,1.0266,0.3511,-4.6718,-3.9084,0,0,0
0.0188,0.0598,1.0388,-0.7405,-3.3893,-5.4962,0,0,0
0.0168,0.0496,1.0549,-1.5038,-1.6947,-5.5573,0,0,0
0.0083,0.0437,1.0608,-1.7939,-0.1985,-4.916,0,0,0
0.0029,0.0464,1.0549,-1.145,0.4275,-4.1069,0,0,0
0.0007,0.0542,1.0396,0.2519,0.5496,-4.0153,0,0,0
0.0049,0.0645,1.0288,1.6718,-0.626,-5.0458,0,0,0
0.0115,0.083,1.0317,2.2824,-1.6412,-6.9389,0,0,0
0.0188,0.0916,1.0386,3.7328,-1.6794,-10.6947,0,0,0
0.0249,0.0972,1.042,4.7786,-1.6565,-14.8321,0,0,0
0.0208,0.0913,1.0254,5.9771,-1.5267,-19.0763,0,0,0
0.0159,0.0935,1.0156,6.3435,-2.8702,-22.771,0,0,0
0.0298,0.0935,1.0127,8.145,-5.2214,-26.1832,0,0,0
0.0444,0.105,1.0315,10.8168,-6.5038,-29.9695,0,0,0
0.0425,0.095,1.075,17.1527,-6.4427,-34.313,0,0,0
0.0508,0.1116,1.0662,14.9237,-4.0992,-41.0382,0,0,0
0.0549,0.1189,1.0735,16.8626,-1.9313,-46.855,0,0,0
0.0515,0.1233,1.0767,19.4351,2.6565,-50.6336,0,0,0
0.0483,0.0889,1.0652,17.0458,7.8626,-52.2672,0,0,0
0.0452,0.1128,1.0828,15.2977,13.2824,-53.3588,0,0,0
0.0203,0.0886,1.0591,14.0,16.4046,-54.1221,0,0,0
-0.0034,0.0911,1.0242,13.5649,16.6718,-54.8702,0,0,0
-0.009,0.095,0.9785,13.9084,13.916,-55.5649,0,0,0
-0.0039,0.1047,0.9919,15.145,9.8931,-55.7176,0,0,0
0.0044,0.1123,1.0195,14.0763,7.7099,-55.7405,0,0,0
0.0066,0.1169,1.0649,12.6183,7.7939,-55.6794,0,0,0
0.0115,0.1138,1.0825,9.4198,10.626,-55.6641,0,0,0
0.0134,0.1165,1.1011,8.1069,15.1298,-55.1527,0,0,0
0.012,0.1135,1.1028,5.8931,20.5649,-54.7863,0,0,0
0.0037,0.1116,1.0835,3.8397,25.0763,-53.3435,0,0,0
-0.0112,0.1099,1.0767,2.8397,28.5496,-53.2595,0,0,0
-0.0264,0.1077,1.0593,4.0687,31.1221,-53.2443,0,0,0
-0.0535,0.0972,1.0264,5.9618,30.9618,-53.6794,0,0,0
-0.0791,0.0864,1.0098,7.8931,29.5649,-53.3282,0,0,0
-0.0952,0.0625,1.0027,9.1908,25.687,-51.3206,0,0,0
-0.0986,0.0503,1.01,8.8244,22.1374,-47.3893,0,0,0
-0.1047,0.0388,1.0503,7.7863,22.0,-40.9237,0,0,0
-0.1082,0.0461,1.0828,6.2901,24.8168,-33.8092,0,0,0
-0.1001,0.0571,1.0916,7.626,29.5114,-28.0916,0,0,0
-0.0962,0.0835,1.0635,6.6489,33.6718,-25.0611,0,0,0
-0.0911,0.103,1.0134,7.7557,33.5267,-23.4656,0,0,0
-0.0916,0.1296,0.9902,7.5344,32.4198,-24.7939,0,0,0
-0.0884,0.1448,0.9871,8.3817,31.2137,-27.1069,0,0,0
-0.0852,0.1433,0.9734,7.7405,29.084,-30.0,0,0,0
-0.1033,0.1548,0.9929,7.4504,27.8321,-33.4885,0,0,0
-0.1079,0.1541,0.98,7.0763,26.5725,-36.4809,0,0,0
-0.123,0.1438,0.9817,6.229,24.9466,-38.3359,0,0,0
-0.1306,0.137,1.0098,5.9389,24.4351,-39.1069,0,0,0
-0.1372,0.1255,1.009,4.0687,24.7939,-39.0229,0,0,0
-0.1458,0.1187,1.0134,3.9542,25.7252,-38.4122,0,0,0
-0.1577,0.1177,1.0044,3.2672,27.0,-37.8779,0,0,0
-0.1643,0.1169,0.9734,1.1832,26.626,-36.771,0,0,0
-0.1738,0.116,0.9709,-0.1908,25.3282,-35.0534,0,0,0
-0.1936,0.1143,0.9844,-0.1679,24.6336,-34.8168,0,0,0
-0.1931,0.1111,0.991,0.1527,23.7176,-34.3969,0,0,0
-0.2024,0.1082,0.9971,0.1221,23.4656,-34.1298,0,0,0
-0.2051,0.1055,0.9912,0.458,23.1756,-33.5573,0,0,0
-0.2144,0.0925,0.9802,0.8779,22.3511,-32.3588,0,0,0
-0.2275,0.0903,0.97,0.9618,20.9924,-31.0687,0,0,0
-0.2219,0.0884,0.9568,1.3359,19.4122,-29.7557,0,0,0
-0.2205,0.1006,0.9573,0.9618,16.8244,-27.9237,0,0,0
-0.2166,0.1062,0.989,0.8092,15.5954,-27.5725,0,0,0
-0.2148,0.1091,0.991,0.1145,15.9008,-28.1069,0,0,0
-0.2192,0.1135,0.989,-0.3359,15.9466,-29.1832,0,0,0
-0.2266,0.1072,0.9692,-1.3588,14.6031,-30.4885,0,0,0
-0.2373,0.0957,0.9675,-1.7557,12.5878,-31.6031,0,0,0
-0.2542,0.0845,0.9695,-1.7557,10.7023,-31.7099,0,0,0
-0.2581,0.0559,0.9734,-2.4427,9.5878,-29.5344,0,0,0
-0.2629,0.0581,0.9941,-3.2748,9.9389,-26.5038,0,0,0
-0.2688,0.0493,0.9856,-4.6336,11.0076,-23.0458,0,0,0
-0.2766,0.0522,0.9714,-5.1374,11.1832,-19.4351,0,0,0
-0.2813,0.0496,0.9602,-5.374,10.6794,-16.6794,0,0,0
-0.2808,0.0437,0.95,-5.1985,8.4733,-13.9389,0,0,0
-0.281,0.0437,0.9597,-4.3282,6.229,-11.7786,0,0,0
-0.2871,0.0544,0.9524,-3.3893,4.1603,-9.9313,0,0,0
-0.2769,0.0527,0.9463,-3.6565,2.2137,-8.1221,0,0,0
-0.2717,0.0566,0.957,-3.4427,1.0916,-5.9084,0,0,0
-0.2742,0.0667,0.9707,-3.2443,0.8092,-4.5038,0,0,0
-0.2722,0.0632,0.9631,-3.626,0.0153,-3.8092,0,0,0
-0.2659,0.0674,0.9766,-4.1832,-0.6794,-2.9237,0,0,0
-0.2644,0.0664,0.9597,-4.7176,-1.4122,-1.2443,0,0,0
-0.2673,0.0742,0.9583,-5.0916,-2.8321,-0.1374,0,0,0
-0.2656,0.0764,0.9812,-5.1985,-4.4046,0.3435,0,0,0
-0.2551,0.0752,0.9902,-5.4504,-4.8626,0.6183,0,0,0
-0.2429,0.0808,1.019,-5.7176,-3.2748,1.2366,0,0,0
-0.2432,0.0803,1.0227,-6.3435,-1.3969,1.7557,0,0,0
-0.2422,0.082,1.0137,-5.8397,-0.7939,1.8702,0,0,0
-0.2422,0.0867,1.0125,-5.3664,-0.6794,1.5191,0,0,0
-0.251,0.0959,1.0105,-3.5725,-1.0611,0.2748,0,0,0
-0.251,0.0898,1.0156,-1.7328,-1.9618,-1.1679,0,0,0
-0.2466,0.0845,1.0142,0.4351,-2.2519,-1.2214,0,0,0
-0.2461,0.0874,1.0173,1.5115,-2.1527,-0.8931,0,0,0
-0.2488,0.0916,1.0078,1.1908,-1.3969,-1.0534,0,0,0
-0.2483,0.0896,1.0063,0.0992,-0.1527,-0.8931,0,0,0
-0.2522,0.0881,1.0078,-1.6794,0.9466,-0.7099,0,0,0
-0.2583,0.0837,1.001,-3.2061,2.2137,0.0229,0,0,0
-0.2642,0.0791,0.9814,-3.9847,2.2366,0.5725,0,0,0
-0.2754,0.0691,0.969,-3.9924,0.1756,1.2901,0,0,0
-0.2773,0.0654,0.96,-4.0916,-1.6794,2.7557,0,0,0
-0.2739,0.0645,0.9624,-3.4656,-3.9313,3.9542,0,0,0
-0.2634,0.0581,0.9968,-2.1221,-4.5954,5.2137,0,0,0
-0.2427,0.0554,1.0142,-2.0687,-3.1832,7.2977,0,0,0
-0.2471,0.0618,1.0105,-3.2901,-1.5725,9.1374,0,0,0
-0.2659,0.0632,1.0066,-4.2595,-0.0153,10.4427,0,0,0
-0.271,0.043,0.9871,-3.6336,0.2137,12.3282,0,0,0
-0.2737,0.0457,0.97,-2.9924,-1.8092,15.3588,0,0,0
-0.2825,0.0383,0.9768,-2.5725,-3.7252,17.916,0,0,0
-0.2817,0.0449,0.9773,-1.6641,-5.0687,20.7786,0,0,0
-0.2737,0.0522,0.9778,-1.0458,-6.2748,23.5496,0,0,0
-0.2546,0.0549,0.981,-1.2519,-7.1069,25.4962,0,0,0
-0.249,0.0679,0.9819,-1.6489,-6.8473,26.8779,0,0,0
-0.2493,0.0774,0.9753,-1.8397,-7.2366,27.4656,0,0,0
-0.248,0.0806,0.9595,-2.0687,-8.1374,27.4198,0,0,0
-0.241,0.0842,0.9446,-2.1832,-10.3817,27.5725,0,0,0
-0.2522,0.0852,0.9402,-2.7634,-13.5878,27.6336,0,0,0
-0.2473,0.071,0.9263,-2.8092,-17.1069,28.1832,0,0,0
-0.2524,0.071,0.9534,-2.2672,-19.8626,28.8321,0,0,0
-0.2339,0.0747,0.9871,-2.6183,-20.0992,30.7023,0,0,0
-0.2253,0.0737,1.0098,-4.8397,-17.8168,32.7023,0,0,0
-0.2151,0.0825,1.0278,-5.8626,-15.1985,34.1374,0,0,0
-0.2024,0.0879,1.0115,-7.2977,-13.626,34.9618,0,0,0
-0.1982,0.1025,1.0015,-7.8626,-12.9084,35.5802,0,0,0
-0.1975,0.1001,1.0005,-8.3359,-14.1985,34.9466,0,0,0
-0.1987,0.1145,1.0059,-6.5802,-15.771,34.2824,0,0,0
-0.188,0.126,0.9878,-5.1374,-17.4122,32.3206,0,0,0
-0.1843,0.1321,0.9968,-4.229,-18.855,30.0534,0,0,0
-0.1733,0.1274,1.0178,-2.5725,-18.771,27.8321,0,0,0
-0.1702,0.1174,1.0295,-1.1908,-17.0534,26.5114,0,0,0
-0.1667,0.1194,1.0173,-0.7786,-15.9313,25.9084,0,0,0
-0.1694,0.1125,0.9988,-0.5573,-16.4046,25.8015,0,0,0
-0.1687,0.1252,0.9927,-0.3282,-17.3359,25.3664,0,0,0
-0.1653,0.127,0.9717,-0.4809,-18.7023,24.7023,0,0,0
-0.1685,0.1265,0.9822,-1.5802,-20.3969,23.916,0,0,0
-0.1567,0.123,0.9949,-2.9695,-21.0916,23.3435,0,0,0
-0.1602,0.1257,0.9915,-5.1832,-21.3511,23.5802,0,0,0
-0.1421,0.1204,1.0034,-6.3511,-21.2137,24.0687,0,0,0
-0.1404,0.1338,1.0027,-7.3282,-19.5267,24.0534,0,0,0
-0.1406,0.1333,0.9785,-8.9847,-19.0763,23.7023,0,0,0
-0.1394,0.1221,0.9719,-10.3969,-20.9084,22.5649,0,0,0
-0.146,0.1187,1.0085,-9.1145,-21.3359,21.6412,0,0,0
-0.1414,0.0928,1.0303,-7.6336,-20.6489,22.0153,0,0,0
-0.1399,0.0864,1.0483,-5.4809,-20.0153,23.8321,0,0,0
-0.1274,0.0823,1.0483,-4.4809,-18.7405,26.8397,0,0,0
-0.1152,0.1008,1.0417,-3.9237,-16.7557,29.8473,0,0,0
-0.1113,0.1177,1.0127,-4.9924,-16.1756,30.6412,0,0,0
-0.103,0.1328,0.9907,-4.9466,-17.8092,29.6641,0,0,0
-0.0959,0.1345,0.9888,-5.2901,-20.2519,27.1832,0,0,0
-0.0918,0.1255,1.0288,-4.2443,-21.313,24.6565,0,0,0
-0.0894,0.1169,1.0571,-3.771,-20.3664,22.7099,0,0,0
-0.0784,0.1077,1.0618,-3.4885,-19.0076,22.2977,0,0,0
-0.0703,0.1162,1.0742,-3.0611,-15.6641,22.4809,0,0,0
-0.0698,0.1248,1.0544,-3.3282,-11.7176,22.5038,0,0,0
-0.0686,0.1318,1.0317,-4.2214,-8.8779,21.3893,0,0,0
-0.0684,0.124,1.0212,-5.7405,-7.9847,20.5114,0,0,0
-0.0806,0.1194,1.0159,-7.1145,-8.1985,20.0534,0,0,0
-0.0864,0.1035,1.0303,-6.5496,-8.5573,19.5496,0,0,0
-0.0889,0.0989,1.0408,-4.8779,-8.855,19.6718,0,0,0
-0.0811,0.1021,1.0388,-3.1603,-8.8855,20.5802,0,0,0
-0.0752,0.1055,1.0454,-2.4733,-8.2519,20.8855,0,0,0
-0.072,0.1257,1.0286,-2.0763,-7.2061,19.8779,0,0,0
-0.072,0.1323,0.9958,-2.6107,-7.3664,18.313,0,0,0
-0.0632,0.1289,0.9836,-3.9008,-8.3511,17.0305,0,0,0
-0.0566,0.1274,0.9924,-5.2748,-10.3664,15.6183,0,0,0
-0.0559,0.1199,1.0366,-4.7863,-11.0611,14.1069,0,0,0
-0.0581,0.1182,1.0625,-1.5802,-9.3511,12.4656,0,0,0
-0.0498,0.1226,1.0581,0.229,-7.4733,11.2748,0,0,0
-0.043,0.135,1.0327,0.5267,-6.5725,10.687,0,0,0
-0.0471,0.1465,1.012,-0.4962,-5.7557,9.2443,0,0,0
-0.0459,0.1399,1.0029,-1.8473,-5.7786,7.4885,0,0,0
-0.0464,0.1416,1.0056,-4.0153,-6.1679,6.4504,0,0,0
-0.0483,0.1262,1.0215,-4.916,-6.1756,5.2519,0,0,0
-0.05,0.1194,1.0337,-4.313,-5.5954,5.2672,0,0,0
-0.0369,0.1108,1.052,-2.5267,-5.5878,4.9618,0,0,0
-0.0369,0.1199,1.0605,-0.7634,-4.687,4.4962,0,0,0
-0.0391,0.1299,1.0513,0.7405,-3.7176,3.6031,0,0,0
-0.043,0.1396,1.0276,1.6031,-3.8168,2.1603,0,0,0
-0.033,0.144,1.0183,1.0916,-4.0382,0.5954,0,0,0
-0.0378,0.1387,1.0166,-0.1603,-3.8244,-0.4656,0,0,0
-0.0449,0.1382,1.0244,-1.7939,-3.0992,-1.8015,0,0,0
-0.0483,0.1187,1.0361,-3.5115,-1.8321,-2.3969,0,0,0
-0.0466,0.1096,1.0298,-4.5267,-0.771,-1.5649,0,0,0
-0.051,0.1157,1.0317,-4.1832,0.2519,-0.8779,0,0,0
-0.0518,0.1216,1.022,-3.0611,0.7099,-0.8626,0,0,0
-0.0496,0.127,1.0005,-1.6947,-0.4656,-1.3435,0,0,0
-0.0542,0.1248,0.9995,-0.9008,-2.229,-2.8244,0,0,0
-0.0513,0.1167,1.0134,-0.2672,-3.7252,-3.6412,0,0,0
-0.052,0.1118,1.0225,-0.7099,-4.229,-3.5344,0,0,0
-0.0481,0.1067,1.0278,-2.0,-3.8321,-2.3817,0,0,0
-0.0452,0.106,1.0417,-3.5496,-2.0916,-0.9771,0,0,0
-0.0466,0.1108,1.0361,-4.2672,0.2519,-0.3359,0,0,0
-0.0503,0.1191,1.0317,-4.3664,1.2137,-0.5802,0,0,0
-0.0515,0.1216,1.0303,-3.3359,0.458,-1.5649,0,0,0
-0.052,0.1177,1.0149,-1.5038,-1.0076,-2.7328,0,0,0
-0.0552,0.1162,1.0122,-0.145,-2.9466,-3.6336,0,0,0
-0.0542,0.1223,1.0117,0.7176,-4.1069,-3.6489,0,0,0
-0.0457,0.1101,1.0161,-0.229,-4.4733,-3.2519,0,0,0
-0.0447,0.1082,1.0232,-2.7023,-3.4275,-2.5191,0,0,0
-0.0439,0.1023,1.0271,-4.7481,-1.8321,-1.7939,0,0,0
-0.0437,0.095,1.0344,-5.8779,-0.4962,-0.7786,0,0,0
-0.0427,0.1033,1.0242,-5.8855,0.0916,-0.1298,0,0,0
-0.0474,0.1118,1.0183,-4.6794,0.3969,-0.2672,0,0,0
-0.0474,0.1074,1.02,-2.6947,-0.3359,-1.6107,0,0,0
-0.0417,0.1033,1.01,-1.0916,-1.9542,-2.3359,0,0,0
-0.0476,0.106,1.0154,-0.7099,-2.7557,-2.5573,0,0,0
-0.0479,0.1021,1.0278,-1.6107,-2.8168,-2.7328,0,0,0
-0.0476,0.0938,1.0278,-2.3817,-2.2137,-2.0,0,0,0
-0.0518,0.0876,1.0295,-3.1374,-1.8626,-0.5573,0,0,0
-0.053,0.0935,1.0322,-3.2443,-1.9084,0.4809,0,0,0
-0.051,0.1001,1.0308,-2.8321,-1.6107,0.7252,0,0,0
-0.0469,0.103,1.0354,-1.6183,-1.5191,-0.0305,0,0,0
-0.043,0.1125,1.0393,-0.3817,-1.0229,-0.6107,0,0,0
-0.0381,0.1096,1.0251,-0.1374,-0.2443,-1.2672,0,0,0
-0.0422,0.1165,1.0161,-1.4962,-0.6107,-1.8015,0,0,0
-0.043,0.1091,1.011,-3.2595,-0.7786,-2.2366,0,0,0
-0.0466,0.1023,1.0208,-4.7023,-0.8931,-1.9924,0,0,0
-0.052,0.0967,1.0298,-5.2443,-0.2137,-1.3588,0,0,0
-0.0547,0.092,1.0244,-4.0534,-0.3511,-0.3435,0,0,0
-0.0488,0.0964,1.0159,-2.2595,-1.6718,0.6565,0,0,0
-0.0427,0.1035,1.0129,-0.8626,-2.8931,0.7557,0,0,0
-0.0398,0.1182,1.0205,-0.0382,-3.1221,-0.3282,0,0,0
-0.0366,0.1206,1.0103,-0.3206,-3.1221,-2.0305,0,0,0
-0.0315,0.1001,1.0149,-1.6794,-2.7939,-2.2672,0,0,0
-0.0398,0.0923,1.0305,-2.4733,-2.1756,-1.4504,0,0,0
-0.0491,0.0952,1.0442,-2.6107,-1.1679,-0.6336,0,0,0
-0.0515,0.0925,1.0261,-2.5191,-1.0382,0.2595,0,0,0
-0.0542,0.1038,1.0305,-2.0534,-0.9695,0.5496,0,0,0
-0.0537,0.1038,1.0181,-1.4656,-1.3969,0.4198,0,0,0
-0.0483,0.1143,1.0027,-1.2061,-2.4198,0.1527,0,0,0
-0.0469,0.1091,1.0117,-1.2595,-3.4198,-0.3053,0,0,0
-0.0437,0.1021,1.0273,-1.3053,-3.6565,-0.542,0,0,0
-0.0435,0.1077,1.041,-2.0687,-2.6489,0.374,0,0,0
-0.0442,0.1101,1.0505,-2.3817,-0.9695,0.9237,0,0,0
-0.0369,0.1089,1.0435,-2.8855,0.542,0.8779,0,0,0
-0.0349,0.1038,1.0278,-3.1679,0.8473,0.7328,0,0,0
-0.0364,0.1042,1.0232,-2.6107,0.0916,0.3817,0,0,0
-0.0388,0.1052,1.0151,-1.1679,-1.313,0.229,0,0,0
-0.0398,0.1079,1.0112,-0.626,-2.626,-0.1527,0,0,0
-0.0415,0.1106,1.0254,-1.0992,-2.9237,-0.6107,0,0,0
-0.0366,0.1133,1.0291,-1.5344,-1.6107,-1.2519,0,0,0
-0.0356,0.1074,1.0376,-2.1298,0.4885,-1.5344,0,0,0
-0.0378,0.1072,1.0188,-2.4962,0.8168,-1.0458,0,0,0
-0.0386,0.1011,1.0093,-1.9237,0.0153,-0.5344,0,0,0
-0.0378,0.1023,1.0132,-1.2672,-1.7252,-0.1145,0,0,0
-0.0388,0.1074,1.0195,-0.5649,-2.5115,-0.1603,0,0,0
-0.0391,0.1147,1.0283,-0.4122,-2.3359,-0.2443,0,0,0
-0.0327,0.1169,1.0251,-0.5649,-1.9084,-1.145,0,0,0
-0.0376,0.116,1.0117,-1.0153,-1.2214,-1.3282,0,0,0
-0.0366,0.1052,1.009,-1.9084,-1.4656,-1.2824,0,0,0
-0.0364,0.1116,1.0215,-2.6183,-1.5191,-1.2443,0,0,0
-0.04,0.105,1.021,-2.5038,-2.0,-1.3359,0,0,0
-0.0381,0.1006,1.0173,-2.6031,-2.3893,-1.1603,0,0,0
-0.0439,0.0977,1.0232,-2.7481,-2.4885,-0.7634,0,0,0
-0.0425,0.1001,1.0259,-3.0611,-1.7252,-0.1908,0,0,0
-0.0435,0.0955,1.0256,-3.3053,-1.374,0.4351,0,0,0
-0.0391,0.1001,1.0261,-4.1832,-0.9313,1.3588,0,0,0
-0.0366,0.0981,1.0281,-4.7023,-0.2977,2.0,0,0,0
-0.0405,0.1121,1.0234,-4.687,-0.4962,1.313,0,0,0
-0.0403,0.1079,1.031,-3.7557,-1.2137,0.313,0,0,0
-0.0417,0.1064,1.0332,-1.7176,-1.4046,-0.8779,0,0,0
-0.0354,0.103,1.0215,0.0534,-2.4962,-1.1908,0,0,0
-0.0288,0.106,1.0256,0.9084,-3.4046,-1.0992,0,0,0
-0.0283,0.1099,1.0371,0.8321,-3.1603,-1.0763,0,0,0
-0.0308,0.1082,1.0415,0.2443,-2.1221,-1.4809,0,0,0
-0.0227,0.1138,1.0386,-1.5115,-0.6565,-1.4122,0,0,0
-0.0261,0.1047,1.0413,-2.2901,1.0,-1.5649,0,0,0
-0.0286,0.1042,1.032,-2.4885,1.9237,-1.9771,0,0,0
-0.0408,0.0989,1.0293,-2.1603,1.855,-2.4504,0,0,0
-0.0479,0.0959,1.0134,-0.9313,0.6565,-3.3511,0,0,0
-0.0444,0.0864,1.0183,0.1908,-0.084,-2.9237,0,0,0
-0.0405,0.0981,1.0222,1.8626,-0.626,-2.313,0,0,0
-0.0237,0.1157,1.0208,3.8473,-1.6565,-2.8702,0,0,0
-0.0012,0.1379,1.0291,5.4504,-2.4046,-4.916,0,0,0
0.0054,0.1638,1.0393,5.626,-2.4656,-10.145,0,0,0
0.0042,0.1655,1.0371,4.9389,-1.8244,-17.1603,0,0,0
-0.0068,0.145,1.0525,5.0916,-0.9313,-22.5725,0,0,0
-0.011,0.1218,1.0745,7.0382,3.1832,-24.4046,0,0,0
-0.0442,0.0999,1.0598,5.3282,4.9847,-24.1908,0,0,0
-0.042,0.0876,1.0232,4.458,4.7252,-20.0,0,0,0
-0.0562,0.1021,1.0466,3.5038,4.229,-17.3511,0,0,0
-0.0513,0.1074,1.05,4.6336,6.626,-15.8855,0,0,0
-0.0537,0.1062,1.05,3.8015,8.2595,-15.084,0,0,0
-0.0562,0.1064,1.0308,3.8244,9.1985,-14.3282,0,0,0
-0.0562,0.1072,1.0134,4.0153,8.7939,-13.3588,0,0,0
-0.0591,0.1125,1.0059,4.1527,7.3969,-11.9771,0,0,0
-0.0654,0.1172,1.0132,4.8626,6.6489,-11.2977,0,0,0
-0.0657,0.137,1.021,6.916,6.2977,-10.8473,0,0,0
-0.0581,0.1475,1.0278,8.0687,6.1221,-10.9237,0,0,0
-0.0259,0.1614,1.0276,8.1603,5.4885,-11.3588,0,0,0
-0.0107,0.1726,1.0437,6.6489,6.2214,-12.4198,0,0,0
-0.0027,0.176,1.0686,5.0687,8.6565,-15.1832,0,0,0
-0.019,0.1838,1.095,5.9847,13.916,-18.8626,0,0,0
-0.03,0.1763,1.0652,6.8855,17.0534,-22.5649,0,0,0
-0.0342,0.1697,1.041,8.5344,16.9389,-25.458,0,0,0
-0.0396,0.1624,1.0537,10.3435,16.9847,-27.6641,0,0,0
-0.0471,0.1577,1.0566,11.542,17.4962,-29.6794,0,0,0
-0.0554,0.1604,1.051,13.1527,18.5496,-31.4275,0,0,0
-0.0605,0.1631,1.0374,13.374,19.0687,-32.771,0,0,0
-0.0686,0.1665,1.0203,13.145,19.4656,-33.7405,0,0,0
-0.0774,0.1589,1.02,12.4046,19.0916,-34.4046,0,0,0
-0.0959,0.1643,1.0249,11.5802,19.3206,-34.771,0,0,0
-0.1079,0.1575,1.0178,10.6183,19.7099,-34.8168,0,0,0
-0.1094,0.1514,1.0129,9.4046,19.7176,-33.8473,0,0,0
-0.1199,0.1472,1.0156,8.1221,20.3664,-33.0382,0,0,0
-0.1318,0.1409,1.0125,7.3664,20.2977,-32.0992,0,0,0
-0.1257,0.1399,1.0088,7.2748,20.6641,-30.4504,0,0,0
-0.1287,0.1428,1.0112,8.8931,20.9695,-29.2519,0,0,0
-0.1204,0.1606,1.02,10.4351,21.2595,-28.7023,0,0,0
-0.1216,0.1726,0.9998,10.0687,21.1527,-29.0,0,0,0
-0.1292,0.178,0.9775,9.4809,20.5267,-30.4122,0,0,0
-0.1387,0.176,0.9729,7.7786,18.7786,-31.8931,0,0,0
-0.1458,0.1624,0.9783,6.3206,17.8702,-32.6641,0,0,0
-0.1479,0.165,0.988,5.6336,17.5114,-32.3282,0,0,0
-0.1531,0.1648,0.998,4.9542,17.6031,-32.1374,0,0,0
-0.1553,0.1584,0.9983,3.5573,18.0305,-32.0534,0,0,0
-0.1614,0.1531,1.0017,3.0992,18.2977,-31.5114,0,0,0
-0.1724,0.1538,0.9834,2.0992,18.771,-31.4122,0,0,0
-0.1855,0.145,0.9814,2.0687,18.7023,-31.0534,0,0,0
-0.198,0.1423,0.9634,1.9542,18.2443,-29.916,0,0,0
-0.2007,0.1367,0.9375,1.7023,15.771,-28.1985,0,0,0
-0.2085,0.1423,0.9377,0.1069,13.0611,-25.9847,0,0,0
-0.2036,0.1416,0.9585,-0.916,10.6489,-24.4656,0,0,0
-0.1987,0.1501,0.9839,-2.5649,10.2061,-23.0153,0,0,0
-0.2063,0.1487,0.9761,-4.0611,10.7557,-22.6107,0,0,0
-0.2144,0.1467,0.9817,-4.1679,10.7939,-22.4809,0,0,0
-0.2236,0.1394,0.9636,-4.084,10.1374,-22.4962,0,0,0
-0.2251,0.1331,0.9614,-3.3282,8.1298,-21.2977,0,0,0
-0.2229,0.1267,0.9758,-2.9924,7.3282,-20.1069,0,0,0
-0.2224,0.1252,0.9976,-3.4122,7.1679,-18.6947,0,0,0
-0.2258,0.1223,1.0032,-4.1374,7.7405,-17.2672,0,0,0
-0.2336,0.1206,0.9917,-4.6489,8.2977,-15.6641,0,0,0
-0.2405,0.1182,0.9724,-4.2977,7.0382,-14.4275,0,0,0
-0.241,0.1094,0.9731,-2.8931,5.1221,-13.0305,0,0,0
-0.2371,0.1199,0.9836,-1.8931,3.4809,-11.6947,0,0,0
-0.2327,0.1272,0.9924,-1.7634,2.7557,-10.6565,0,0,0
-0.2258,0.1289,0.99,-2.7023,3.4733,-9.8321,0,0,0
-0.23,0.1331,0.9888,-4.1221,4.0,-8.9237,0,0,0
-0.2385,0.1279,0.9736,-4.3435,3.687,-8.5954,0,0,0
-0.2368,0.127,0.9648,-4.1298,2.5267,-7.9695,0,0,0
-0.2412,0.1284,0.9917,-3.5649,1.8855,-7.1679,0,0,0
-0.2278,0.1206,1.0071,-3.2061,2.6183,-5.7786,0,0,0
-0.2178,0.1331,1.001,-2.5496,3.3282,-5.2137,0,0,0
-0.2158,0.1492,0.9929,-1.7023,3.2748,-5.6031,0,0,0
-0.2209,0.1531,0.9875,-0.8397,3.0534,-7.4427,0,0,0
-0.2266,0.1462,0.9802,-0.0534,2.0992,-8.6183,0,0,0
-0.2292,0.1377,0.9861,-0.4962,1.0687,-9.2519,0,0,0
-0.2375,0.1335,0.9907,-1.7099,1.0534,-8.5115,0,0,0
-0.2324,0.1208,0.9861,-3.4427,1.6565,-6.9695,0,0,0
-0.2361,0.1213,0.9883,-5.2672,2.3359,-4.9771,0,0,0
-0.2317,0.1201,0.9988,-6.229,2.855,-3.3511,0,0,0
-0.2363,0.1255,1.0139,-5.3359,3.9695,-2.6107,0,0,0
-0.2351,0.1387,1.0056,-3.4198,4.5802,-2.5038,0,0,0
-0.2415,0.1367,0.9895,-1.1069,3.3359,-3.5878,0,0,0
-0.239,0.1372,0.9851,0.7023,2.0382,-4.4885,0,0,0
-0.2363,0.1367,0.9775,0.9924,1.0,-5.3053,0,0,0
-0.2354,0.1299,0.9851,0.4122,0.5267,-4.9237,0,0,0
-0.2371,0.1343,0.9839,-0.7939,0.2595,-4.5649,0,0,0
-0.2336,0.1301,0.9922,-2.687,1.2977,-3.6489,0,0,0
-0.2358,0.1377,0.9995,-4.2977,2.8321,-2.4351,0,0,0
-0.2393,0.1431,0.9827,-5.1298,3.4046,-2.0763,0,0,0
-0.2327,0.1382,0.9924,-4.8321,3.7023,-2.0687,0,0,0
-0.2451,0.1392,0.9817,-4.5649,3.5267,-2.5573,0,0,0
-0.2429,0.1379,0.9631,-3.916,2.1145,-2.6031,0,0,0
-0.2383,0.1306,0.9854,-2.9924,0.687,-3.0916,0,0,0
-0.2341,0.1316,0.9983,-2.5038,0.542,-3.0,0,0,0
-0.2422,0.134,1.0066,-1.9542,1.313,-2.771,0,0,0
-0.2456,0.1306,0.9946,-1.4962,1.9695,-2.3359,0,0,0
-0.2461,0.127,0.9543,-1.6107,0.8626,-1.9924,0,0,0
-0.2405,0.1277,0.9829,-2.0916,-0.0763,-1.8779,0,0,0
-0.239,0.1233,0.991,-2.9084,0.6947,-1.3664,0,0,0
-0.2405,0.1272,0.9949,-3.1527,1.8168,-0.9237,0,0,0
-0.2424,0.1338,0.9763,-4.229,2.2137,-1.0687,0,0,0
-0.2417,0.1379,0.979,-4.5191,1.6794,-1.5344,0,0,0
-0.24,0.1296,0.9829,-4.0534,1.1145,-2.0229,0,0,0
-0.2502,0.1372,0.9773,-3.0,-0.1069,-2.4809,0,0,0
-0.2468,0.135,0.9851,-2.0305,-1.3206,-3.2137,0,0,0
-0.2419,0.1265,0.9922,-1.2595,-1.7099,-3.4504,0,0,0
-0.2441,0.127,0.9863,-1.5038,-1.1527,-2.6718,0,0,0
-0.2563,0.127,0.9932,-1.6565,0.0458,-2.7099,0,0,0
-0.2495,0.1277,0.9961,-0.8092,0.4504,-1.9771,0,0,0
-0.2432,0.1182,0.9841,-1.0153,0.4275,-1.2901,0,0,0
-0.24,0.1353,1.0005,-1.3359,0.1069,-0.1527,0,0,0
-0.2405,0.1377,1.0042,-1.9695,0.626,-0.4885,0,0,0
-0.2341,0.1487,1.0093,-2.4733,1.3817,-1.2824,0,0,0
-0.2322,0.1445,0.9976,-2.1603,2.0229,-2.626,0,0,0
-0.2349,0.1406,0.9897,-1.6412,2.3053,-3.5191,0,0,0
-0.2456,0.1375,0.9897,-0.7252,1.6718,-3.9542,0,0,0
-0.2419,0.1379,0.9902,0.374,1.5954,-4.3435,0,0,0
-0.241,0.1348,0.9841,-0.5496,0.9237,-4.4656,0,0,0
-0.2412,0.1365,0.9709,-1.8702,0.8015,-4.3053,0,0,0
-0.25,0.1289,0.9719,-3.1374,0.3053,-4.3206,0,0,0
-0.2461,0.1177,0.989,-4.1679,0.9008,-3.4275,0,0,0
-0.2517,0.1145,0.9919,-4.6489,1.5802,-2.6947,0,0,0
-0.251,0.1118,0.9915,-4.0382,2.0229,-2.0229,0,0,0
-0.2581,0.113,0.98,-2.9695,1.4427,-1.2061,0,0,0
-0.2629,0.113,0.9683,-1.5725,0.3969,-0.8321,0,0,0
-0.2639,0.1155,0.9668,-0.4275,-1.3817,-0.4656,0,0,0
-0.2605,0.105,0.9709,0.4656,-3.2366,0.7939,0,0,0
-0.2581,0.1125,0.9844,-0.0687,-3.3206,2.6947,0,0,0
-0.2388,0.1199,0.9995,-0.4733,-2.5267,3.8473,0,0,0
-0.2356,0.1367,0.9985,-2.0153,-0.9771,4.542,0,0,0
-0.23,0.1528,0.9958,-3.5496,0.6565,3.626,0,0,0
-0.2271,0.1526,0.991,-4.4198,1.2366,1.8397,0,0,0
-0.2314,0.1567,1.0149,-3.5115,1.3969,-1.0687,0,0,0
-0.2329,0.1526,1.0269,-1.3435,2.6107,-3.2214,0,0,0
-0.2329,0.1523,1.0151,0.9237,3.4427,-4.7099,0,0,0
-0.2512,0.1533,0.9988,0.8168,3.2901,-6.0611,0,0,0
-0.2476,0.1426,0.9785,1.2977,2.3969,-6.771,0,0,0
-0.26,0.1392,0.9797,0.5878,1.3206,-7.0,0,0,0
-0.2517,0.1304,1.0051,0.3664,1.7557,-6.9695,0,0,0
-0.2498,0.1372,1.0256,-0.5191,3.8092,-6.7557,0,0,0
-0.2351,0.1306,1.0195,-1.1145,6.3206,-6.4885,0,0,0
-0.2437,0.1421,1.0071,-1.1374,7.6336,-7.2748,0,0,0
-0.251,0.1501,0.979,-1.0305,6.7405,-9.0,0,0,0
-0.2456,0.1384,0.9871,-0.0992,5.4351,-11.0534,0,0,0
-0.238,0.1362,1.0107,1.3282,5.7176,-13.1603,0,0,0
-0.2361,0.1377,1.0117,2.8397,6.8626,-14.6565,0,0,0
-0.2395,0.1475,1.0151,4.7176,7.2748,-16.9084,0,0,0
-0.2371,0.1545,1.0181,5.8931,7.5115,-19.374,0,0,0
-0.2292,0.1497,1.0176,6.3969,7.7863,-20.9771,0,0,0
-0.2341,0.1594,1.0217,6.7023,8.8855,-21.9924,0,0,0
-0.2339,0.1528,1.0103,6.8397,10.8092,-23.5725,0,0,0
-0.2458,0.1587,1.0095,6.0153,13.2519,-25.1145,0,0,0
-0.2502,0.1477,0.9995,4.9618,15.6947,-26.4046,0,0,0
-0.2642,0.1543,1.0015,3.8397,17.3588,-27.2519,0,0,0
-0.2756,0.1528,0.9819,3.2595,18.2977,-27.2214,0,0,0
-0.2808,0.1475,0.9966,3.771,19.0534,-27.0382,0,0,0
-0.2805,0.1587,0.9902,3.1679,19.3969,-27.1374,0,0,0
-0.2791,0.1589,0.9927,4.0458,20.0534,-27.9771,0,0,0
-0.2803,0.1584,0.9644,4.3893,20.0763,-28.4275,0,0,0
-0.2788,0.1636,0.9568,5.4275,18.9695,-29.2595,0,0,0
-0.2837,0.1687,0.9695,4.9618,18.9695,-31.1069,0,0,0
-0.2834,0.1602,0.9685,3.8779,21.0076,-32.8321,0,0,0
-0.2852,0.1582,0.9524,2.5496,21.7634,-33.8244,0,0,0
-0.2979,0.1582,0.9458,1.4885,22.0153,-35.3817,0,0,0
-0.3142,0.1558,0.9248,-0.771,21.7176,-36.6947,0,0,0
-0.3188,0.1448,0.9424,-0.3359,21.1145,-38.0076,0,0,0
-0.3291,0.1472,0.9321,-2.7786,20.5191,-38.3664,0,0,0
-0.3223,0.1377,0.9275,-4.8473,19.0687,-38.5496,0,0,0
-0.3298,0.1411,0.928,-6.0534,18.3282,-39.7939,0,0,0
-0.3413,0.1194,0.9165,-6.0229,16.9618,-41.0,0,0,0
-0.3489,0.115,0.9324,-4.916,16.2519,-41.9008,0,0,0
-0.3582,0.1011,0.9175,-5.542,15.3435,-41.8931,0,0,0
-0.3689,0.0928,0.8999,-5.5267,13.0153,-41.3359,0,0,0
-0.3787,0.0803,0.9153,-5.3664,10.5954,-40.2519,0,0,0
-0.3923,0.0688,0.9172,-6.6947,9.7863,-38.2901,0,0,0
-0.408,0.0552,0.9033,-7.916,8.9084,-35.7176,0,0,0
-0.4104,0.0408,0.887,-8.2672,7.229,-32.5649,0,0,0
-0.4155,0.0188,0.8928,-8.9847,4.9466,-29.2519,0,0,0
-0.4316,0.0088,0.896,-9.5344,3.542,-25.5344,0,0,0
-0.4392,-0.0015,0.9089,-10.1374,2.1527,-22.0916,0,0,0
-0.429,-0.0017,0.9126,-10.7252,0.4275,-16.8931,0,0,0
-0.4312,-0.0054,0.9331,-10.2061,-0.5115,-13.1145,0,0,0
-0.4263,-0.0012,0.9468,-10.0534,-0.9618,-9.8321,0,0,0
-0.4229,-0.0105,0.9495,-9.6107,-1.8092,-5.7634,0,0,0
-0.4114,-0.0034,0.9624,-8.8931,-3.1985,-2.8702,0,0,0
-0.3972,0.0054,0.9712,-7.5573,-3.7405,-0.2214,0,0,0
-0.3911,0.021,0.9695,-6.5038,-3.1985,1.2214,0,0,0
-0.3838,0.0186,0.9629,-4.9084,-4.145,1.8015,0,0,0
-0.3804,0.0386,0.9766,-2.9237,-4.4198,1.7481,0,0,0
-0.364,0.0398,0.9912,-0.9389,-3.374,1.313,0,0,0
-0.3591,0.0488,0.979,-0.0687,-2.4504,1.6641,0,0,0
-0.3616,0.0559,0.9722,0.5725,-2.8702,1.5191,0,0,0
-0.3674,0.0618,0.9556,0.2443,-4.3435,0.6718,0,0,0
-0.3723,0.0645,0.9414,-0.5573,-5.1832,-0.0076,0,0,0
-0.3723,0.0603,0.936,-1.4885,-6.0534,-0.2443,0,0,0
-0.3584,0.0547,0.9397,-2.0229,-7.6336,0.0992,0,0,0
-0.3503,0.0571,0.9614,-1.4962,-8.4885,0.8092,0,0,0
-0.3518,0.0698,0.9741,-0.313,-7.4351,0.5802,0,0,0
-0.3508,0.0728,0.9727,0.7863,-5.4733,-0.4275,0,0,0
-0.354,0.0725,0.9609,0.5878,-4.9924,-1.4198,0,0,0
-0.3591,0.063,0.9648,-0.3511,-4.4046,-1.3969,0,0,0
-0.3623,0.0596,0.9534,-1.0382,-4.2519,-0.8931,0,0,0
-0.3635,0.0562,0.9624,-0.7328,-3.5878,-0.2672,0,0,0
-0.3628,0.0676,0.959,-1.1069,-3.5038,0.7023,0,0,0
-0.3728,0.075,0.9587,-1.313,-3.1145,0.7328,0,0,0
-0.3721,0.0686,0.9529,-1.6412,-3.6183,0.5802,0,0,0
-0.3599,0.073,0.9551,-2.1298,-3.771,0.8244,0,0,0
-0.356,0.0667,0.9729,-2.1374,-3.6641,0.7786,0,0,0
-0.3557,0.0747,0.9697,-2.0382,-2.313,1.0305,0,0,0
-0.3608,0.0728,0.9634,-1.7176,-2.1527,0.8473,0,0,0
-0.3625,0.0796,0.9583,-1.1221,-2.2977,0.6107,0,0,0
-0.3572,0.0828,0.9553,-0.6794,-2.5038,0.5191,0,0,0
-0.3535,0.083,0.9666,-0.8015,-2.5725,0.3206,0,0,0
-0.3601,0.092,0.9653,-0.3817,-2.1145,0.1298,0,0,0
-0.3503,0.083,0.9653,-0.626,-1.771,-0.2595,0,0,0
-0.3477,0.0818,0.9641,-1.3664,-1.1603,-0.7786,0,0,0
-0.3547,0.0833,0.9629,-2.2137,-0.5802,-1.3359,0,0,0
-0.3545,0.0732,0.9517,-2.6489,-0.2748,-2.2214,0,0,0
-0.3547,0.0645,0.9524,-2.9542,-0.313,-2.0992,0,0,0
-0.3621,0.0627,0.9722,-3.6947,0.7328,-1.7557,0,0,0
-0.3696,0.0583,0.9639,-3.5191,1.1374,-1.2214,0,0,0
-0.3655,0.0549,0.9565,-3.1603,0.3664,-0.2595,0,0,0
-0.3672,0.0625,0.9578,-2.4733,-0.687,0.0992,0,0,0
-0.366,0.061,0.9507,-2.229,-1.626,-0.0458,0,0,0
-0.3579,0.0552,0.9539,-2.1832,-2.1985,0.0076,0,0,0
-0.3557,0.0566,0.9541,-2.7634,-2.1603,0.3053,0,0,0
-0.3535,0.0637,0.9561,-3.1374,-1.3588,0.0611,0,0,0
-0.3489,0.0552,0.9475,-3.7481,-1.4962,0.2366,0,0,0
-0.3611,0.0554,0.9436,-3.3893,-2.4885,0.5954,0,0,0
-0.3694,0.0591,0.9343,-2.6183,-4.4275,0.0687,0,0,0
-0.3652,0.0496,0.9336,-1.8015,-5.7557,0.0992,0,0,0
-0.3643,0.0381,0.9346,-2.5038,-7.1069,1.0534,0,0,0
-0.3567,0.0349,0.9473,-3.3435,-7.2672,3.4656,0,0,0
-0.3647,0.0305,0.9407,-4.7481,-6.8168,5.916,0,0,0
-0.3633,0.0276,0.9385,-5.7252,-7.1985,8.3588,0,0,0
-0.3535,0.0356,0.9458,-6.4962,-7.4504,10.4275,0,0,0
-0.3586,0.0352,0.9539,-6.3435,-7.2672,11.229,0,0,0
-0.3552,0.0229,0.9514,-5.5878,-7.3359,11.8931,0,0,0
-0.3708,0.0063,0.9407,-6.2137,-8.2061,13.1756,0,0,0
-0.3943,-0.0322,0.9673,-9.2366,-8.0458,17.0687,0,0,0
-0.406,-0.0554,0.9529,-10.5038,-8.2977,23.9847,0,0,0
-0.4214,-0.072,0.9419,-9.1145,-9.5954,32.4046,0,0,0
-0.4124,-0.0691,0.9216,-9.4656,-14.1756,40.3282,0,0,0
-0.4165,-0.0613,0.9387,-10.855,-18.9542,46.3359,0,0,0
-0.4084,-0.0801,0.9531,-8.7634,-21.7099,52.2977,0,0,0
-0.3884,-0.0735,0.9727,-5.0534,-23.0153,59.4351,0,0,0
-0.3757,-0.0662,0.9763,-1.8397,-24.5573,66.1756,0,0,0
-0.3582,-0.0403,0.9307,1.5878,-27.7405,71.8779,0,0,0
-0.3486,-0.0181,0.9006,2.3511,-33.9084,75.4504,0,0,0
-0.3662,0.0054,0.8562,3.1374,-41.6107,77.6947,0,0,0
-0.3745,-0.0059,0.7712,1.1145,-51.0,81.1603,0,0,0
-0.3911,-0.0042,0.6855,-0.313,-65.1221,85.6641,0,0,0
-0.3684,-0.0186,0.6467,-5.771,-81.9466,92.3893,0,0,0
-0.2954,-0.0576,0.7444,-7.3359,-93.7405,100.6641,0,0,0
-0.2375,-0.0222,0.9182,-14.6565,-91.6565,108.4122,0,0,0
-0.1697,-0.0112,1.0181,-25.9084,-82.2214,116.458,0,0,0
-0.1089,-0.0056,1.064,-32.5802,-71.2672,123.8397,0,0,0
-0.0564,0.03,1.1345,-31.7328,-58.7099,129.4886,0,0,0
-0.0474,0.0769,1.1282,-31.8855,-48.6947,130.8626,0,0,0
-0.061,0.0886,1.0764,-32.9542,-46.4733,129.2901,0,0,0
-0.0815,0.1072,1.0369,-31.3969,-49.5649,125.9466,0,0,0
-0.0671,0.1165,1.002,-24.1221,-56.6183,122.9466,0,0,0
-0.0269,0.1331,0.9968,-16.3969,-64.5267,120.3053,0,0,0
0.0134,0.1614,1.0303,-12.8244,-69.3206,115.771,0,0,0
0.0317,0.1709,1.0698,-13.5115,-69.7481,108.4122,0,0,0
0.0496,0.1658,1.1323,-13.6412,-63.855,100.6718,0,0,0
0.0425,0.1396,1.1504,-14.5954,-54.3511,94.8473,0,0,0
0.0481,0.1206,1.1519,-13.0229,-44.9237,93.1603,0,0,0
0.054,0.1001,1.1599,-12.313,-36.6565,92.2977,0,0,0
0.0603,0.1309,1.1453,-10.1908,-28.9008,91.5344,0,0,0
0.0908,0.1609,1.103,-9.9695,-23.9924,88.5649,0,0,0
0.1055,0.2134,1.0928,-9.9237,-20.9237,81.9847,0,0,0
0.1101,0.2458,1.0691,-11.8626,-18.0611,72.1756,0,0,0
0.1335,0.23,1.1021,-11.3588,-15.5802,61.4427,0,0,0
0.1235,0.2424,1.1184,-6.5878,-10.4885,49.8092,0,0,0
0.1077,0.2454,1.1045,-0.1221,-8.3359,38.7328,0,0,0
0.0947,0.252,1.0911,7.2901,-6.6489,27.7786,0,0,0
0.0979,0.2493,1.0569,11.7863,-6.0382,17.8092,0,0,0
0.106,0.248,1.0242,13.6031,-6.5649,9.6031,0,0,0
0.1011,0.2561,1.0132,11.374,-6.5496,1.6107,0,0,0
0.092,0.2393,1.019,7.542,-5.5954,-5.5573,0,0,0
0.0701,0.2178,1.0361,4.1756,-2.5802,-11.3893,0,0,0
0.0474,0.1921,1.04,1.7176,1.3588,-14.5344,0,0,0
0.0317,0.1602,1.0166,-0.2824,3.2901,-15.313,0,0,0
0.0283,0.1343,1.0105,-1.7481,3.5038,-14.3359,0,0,0
0.0164,0.1265,1.012,-4.1221,4.0,-12.8779,0,0,0
0.0115,0.1191,1.011,-6.2214,4.084,-11.5496,0,0,0
0.0071,0.1042,1.0259,-8.0916,5.1069,-10.687,0,0,0
-0.01,0.0918,1.0449,-7.4351,6.4885,-9.7328,0,0,0
-0.0239,0.0811,1.0398,-5.771,6.7405,-7.9924,0,0,0
-0.0178,0.0779,1.0146,-3.2748,5.626,-6.4504,0,0,0
-0.0161,0.0908,1.0039,-1.4733,3.4122,-5.7481,0,0,0
-0.0193,0.0977,0.9912,-0.6183,1.0305,-6.6489,0,0,0
-0.0247,0.0986,0.9907,-0.2366,-0.9237,-8.7557,0,0,0
-0.0227,0.0823,1.0085,1.1832,-2.0763,-10.1069,0,0,0
-0.0166,0.063,1.0295,2.4046,-1.9084,-8.5038,0,0,0
-0.0073,0.0635,1.0317,2.6565,-1.8092,-5.9237,0,0,0
-0.0056,0.0803,1.0254,1.7176,-0.8702,-4.0458,0,0,0
-0.0085,0.0933,1.0264,0.1069,0.4733,-4.1145,0,0,0
-0.0054,0.0979,1.009,-1.8168,1.1679,-5.3359,0,0,0
-0.0049,0.0918,1.0166,-3.4046,1.3282,-6.1527,0,0,0
-0.0115,0.0811,1.0208,-3.2214,0.3206,-6.1298,0,0,0
-0.0149,0.0762,1.0139,-2.7099,-0.8244,-5.3053,0,0,0
-0.019,0.0872,1.0293,-2.5038,-1.0611,-4.2519,0,0,0
-0.0137,0.0764,1.0334,-2.374,-0.6031,-3.5954,0,0,0
-0.0098,0.0808,1.0166,-3.084,-0.7023,-2.5267,0,0,0
-0.0073,0.0793,1.0366,-3.2366,-0.5802,-2.1374,0,0,0
-0.0168,0.0789,1.0505,-2.3588,-0.0992,-1.6489,0,0,0
-0.0186,0.0842,1.0308,-1.2672,0.2137,-1.3893,0,0,0
-0.019,0.0881,1.0095,-0.6412,-0.8397,-1.2595,0,0,0
-0.021,0.0867,1.0078,-0.6565,-2.0153,-1.4656,0,0,0
-0.0149,0.0876,1.0076,-1.8092,-3.0992,-0.5267,0,0,0
-0.0066,0.0854,1.0342,-3.6107,-2.5496,0.9313,0,0,0
-0.0029,0.1018,1.0535,-4.9542,-0.687,1.9389,0,0,0
-0.0076,0.1116,1.0332,-5.313,1.5954,1.8931,0,0,0
-0.0051,0.1143,1.0142,-6.084,1.855,1.0458,0,0,0
0.0024,0.1094,1.0151,-6.5344,1.626,0.7023,0,0,0
-0.0042,0.1118,1.0103,-6.2443,0.3435,0.1908,0,0,0
0.0015,0.1055,1.0063,-6.1679,-1.8473,0.0,0,0,0
-0.0002,0.1064,1.0383,-4.7557,-2.5038,-0.7863,0,0,0
-0.0122,0.115,1.0452,-2.542,-2.0916,-1.8473,0,0,0
-0.0044,0.1082,1.033,-1.1832,-2.084,-2.2824,0,0,0
0.0027,0.1118,1.0237,-1.7557,-2.3359,-2.4733,0,0,0
0.0049,0.1204,1.0129,-3.0611,-1.6107,-3.3511,0,0,0
0.002,0.1104,1.0186,-4.5878,-1.2519,-4.145,0,0,0
0.0007,0.1089,1.0208,-6.4275,-1.1985,-4.2519,0,0,0
0.0024,0.0962,1.0378,-6.9542,-0.855,-4.6336,0,0,0
-0.0002,0.1013,1.0435,-6.7176,0.3588,-4.6412,0,0,0
0.0032,0.104,1.0347,-6.2977,1.5344,-5.2137,0,0,0
0.0024,0.1013,1.0144,-6.0611,2.1298,-6.1679,0,0,0
-0.0093,0.1033,0.99,-4.8168,0.3359,-8.0076,0,0,0
-0.0173,0.0894,0.9932,-3.5649,-1.8931,-9.4885,0,0,0
-0.0186,0.0725,1.0049,-3.3969,-3.4733,-8.3053,0,0,0
-0.0183,0.0635,1.0273,-3.6412,-3.2595,-6.9618,0,0,0
-0.011,0.0544,1.0476,-4.374,-1.4504,-4.1298,0,0,0
-0.01,0.0618,1.064,-5.0458,1.313,-1.9237,0,0,0
-0.0134,0.072,1.051,-4.5878,3.3206,-0.1679,0,0,0
-0.0066,0.083,1.0361,-3.145,3.8473,-0.2214,0,0,0
-0.0056,0.0947,1.0032,-1.5115,2.6794,-1.4427,0,0,0
-0.0046,0.1006,0.9812,-0.3969,-1.3282,-2.4504,0,0,0
-0.0037,0.0979,0.9946,-0.3817,-4.6489,-4.0992,0,0,0
0.0,0.0935,1.0156,-1.3206,-4.8779,-4.5573,0,0,0
-0.0015,0.0884,1.033,-2.8626,-4.6489,-4.1374,0,0,0
-0.0017,0.0789,1.0522,-3.8626,-2.3969,-3.0534,0,0,0
-0.0037,0.083,1.0442,-3.6031,-0.6412,-2.1298,0,0,0
-0.001,0.0869,1.0356,-3.4198,-0.4809,-1.0076,0,0,0
0.0005,0.093,1.0195,-3.7252,-0.4656,-0.7252,0,0,0
0.001,0.0962,1.0151,-4.3893,-0.9389,-0.7328,0,0,0
0.0005,0.1013,1.022,-6.0916,-0.6718,-1.6565,0,0,0
-0.0015,0.0952,1.0237,-6.7099,-0.4351,-2.0,0,0,0
0.0032,0.0835,1.0439,-7.0763,0.2977,-2.3893,0,0,0
-0.0027,0.0823,1.0417,-5.3893,0.0534,-1.9237,0,0,0
-0.0049,0.0774,1.0359,-2.8779,-0.7939,-2.0534,0,0,0
-0.0059,0.0874,1.0251,-0.4962,-2.9466,-2.6412,0,0,0
-0.0044,0.0938,1.0237,-0.1679,-4.771,-3.7252,0,0,0
0.0046,0.0886,1.0403,-1.4656,-4.0458,-4.2901,0,0,0
0.0046,0.0706,1.061,-3.6565,-1.3511,-3.7786,0,0,0
0.001,0.0691,1.0527,-5.9084,1.5344,-2.0458,0,0,0
-0.0029,0.0718,1.0461,-6.4427,3.3817,-0.6947,0,0,0
-0.0073,0.0769,1.0457,-5.6641,3.3053,-0.5649,0,0,0
-0.0166,0.0793,1.0325,-4.1145,2.2977,-1.5496,0,0,0
-0.0105,0.0762,1.0286,-2.3053,0.4809,-2.6336,0,0,0
-0.0068,0.0762,1.0298,-0.8779,-0.3893,-3.6336,0,0,0
-0.0032,0.0737,1.0354,-0.8931,0.2137,-3.9924,0,0,0
-0.009,0.0664,1.0242,-1.2748,0.8855,-3.229,0,0,0
-0.011,0.064,1.0171,-1.5496,1.0305,-2.6107,0,0,0
-0.0166,0.0632,1.012,-1.6565,0.542,-1.4733,0,0,0
-0.0217,0.0654,1.0122,-1.2366,-0.1069,-0.5496,0,0,0
-0.0081,0.0662,1.0176,-0.8168,-0.9847,-0.0763,0,0,0
-0.009,0.0767,1.0222,-0.6107,-1.4351,0.3206,0,0,0
-0.0044,0.0896,1.0156,-1.0916,-1.1069,-0.4427,0,0,0
0.0015,0.0813,1.0183,-1.855,-1.0382,-1.374,0,0,0
0.0049,0.0881,1.0286,-2.5038,0.7863,-1.4656,0,0,0
-0.0022,0.0833,1.0173,-3.3282,1.374,-2.0,0,0,0
-0.001,0.0789,1.019,-3.4046,1.1527,-1.8168,0,0,0
-0.0088,0.0759,1.0081,-2.4122,-0.3282,-1.6336,0,0,0
-0.0034,0.0806,1.0129,-1.9695,-1.9847,-1.8473,0,0,0
-0.0042,0.0769,1.03,-1.5878,-2.8473,-1.7786,0,0,0
-0.009,0.0876,1.033,-2.3282,-2.3588,-2.0916,0,0,0
-0.0083,0.0842,1.0371,-2.5191,-1.4046,-2.8473,0,0,0
-0.0015,0.0676,1.0237,-4.2061,-0.8855,-2.855,0,0,0
-0.0127,0.0693,1.0393,-4.7557,0.3282,-2.0611,0,0,0
-0.01,0.0674,1.0374,-5.0916,1.4198,-1.1298,0,0,0
-0.0193,0.0649,1.0269,-5.542,1.5649,-0.7252,0,0,0
-0.0166,0.0796,1.0122,-5.9084,0.0992,-0.4885,0,0,0
-0.0161,0.0759,1.0229,-5.7176,-1.2366,-0.8092,0,0,0
-0.0159,0.0762,1.0146,-6.0611,-2.3969,-1.2595,0,0,0
-0.0181,0.0796,1.0178,-6.4733,-3.2824,-0.9084,0,0,0
-0.0122,0.0735,1.012,-8.1298,-3.855,-1.3511,0,0,0
0.0002,0.0779,1.009,-10.9237,-3.8244,-0.5038,0,0,0
0.0085,0.0811,1.0203,-14.5649,-3.1221,-0.5191,0,0,0
0.0093,0.0835,1.0171,-19.0458,-1.6947,-0.8168,0,0,0
0.0071,0.082,1.0178,-23.2672,0.0763,-1.8397,0,0,0
0.0085,0.0752,1.0208,-25.3435,1.2748,-2.2901,0,0,0
-0.0051,0.072,1.0085,-25.2672,1.4427,-3.3817,0,0,0
-0.0068,0.0737,1.0059,-24.0229,-0.084,-4.7634,0,0,0
-0.0032,0.0586,1.0288,-23.3511,-0.3817,-5.9389,0,0,0
0.0024,0.0496,1.054,-21.7634,0.6794,-7.145,0,0,0
-0.0034,0.0535,1.0686,-19.542,3.2214,-8.0611,0,0,0
-0.0142,0.041,1.0757,-15.855,4.5954,-9.1221,0,0,0
-0.0137,0.0205,1.0437,-9.2061,4.5573,-9.687,0,0,0
-0.0127,0.0251,1.0142,-3.7786,1.1221,-10.8092,0,0,0
-0.011,0.0383,1.0164,-0.3053,-2.8702,-12.0153,0,0,0
-0.0112,0.0435,1.0222,1.1756,-5.145,-13.6336,0,0,0
0.0007,0.0481,1.0281,1.084,-5.0611,-14.7557,0,0,0
0.0098,0.0471,1.0286,-1.4198,-4.4427,-15.687,0,0,0
0.0095,0.0435,1.0452,-4.5344,-2.1145,-15.9847,0,0,0
0.0034,0.0327,1.0562,-6.1221,0.5267,-15.8321,0,0,0
-0.002,0.0247,1.0569,-6.6947,2.0763,-15.2977,0,0,0
-0.001,0.0276,1.0688,-6.3359,3.8321,-14.3817,0,0,0
-0.0032,0.0344,1.0576,-5.1298,5.0153,-14.8779,0,0,0
0.0029,0.032,1.0466,-3.0305,5.145,-15.7176,0,0,0
-0.0081,0.0469,1.0298,0.2519,3.7786,-16.4275,0,0,0
-0.0071,0.0601,1.0205,3.1603,1.8168,-18.5802,0,0,0
0.0061,0.0637,1.0098,4.8168,0.0458,-20.542,0,0,0
0.0039,0.0728,1.0132,5.0229,-1.3206,-23.2672,0,0,0
0.0051,0.0745,1.0142,4.2748,-1.1069,-25.9008,0,0,0
0.0049,0.0532,1.0337,2.0534,-0.9237,-28.229,0,0,0
-0.0024,0.0342,1.064,-0.3511,1.0534,-28.0611,0,0,0
-0.0146,0.0288,1.0696,-0.4733,4.7939,-26.8168,0,0,0
-0.02,0.0168,1.0481,-2.0076,6.542,-24.3435,0,0,0
-0.0183,0.0186,1.0344,-3.4275,6.855,-20.916,0,0,0
-0.0215,0.0308,1.0269,-3.2824,6.7863,-19.1145,0,0,0
-0.0166,0.0303,1.021,-3.0763,6.8244,-18.5344,0,0,0
-0.0249,0.0393,1.0176,-1.1145,5.6412,-19.8168,0,0,0
-0.0313,0.0283,1.0093,1.3206,3.6183,-20.7328,0,0,0
-0.0256,0.0166,1.0251,4.1832,1.4198,-20.855,0,0,0
-0.0337,0.0159,1.0334,5.7557,0.5802,-19.8931,0,0,0
-0.0422,0.0063,1.0349,6.7176,0.4275,-18.3817,0,0,0
-0.042,0.0093,1.0281,6.4656,0.4733,-15.542,0,0,0
-0.0369,0.0139,1.0173,4.687,0.3893,-13.0611,0,0,0
-0.0342,0.0129,1.0066,1.9389,0.6107,-10.4275,0,0,0
-0.0383,0.0154,1.0278,0.8702,0.5725,-8.5115,0,0,0
-0.0334,0.0278,1.0422,0.4885,1.0763,-7.3359,0,0,0
-0.0259,0.0393,1.0393,0.7939,1.5725,-6.3359,0,0,0
-0.0156,0.0415,1.0315,0.8168,1.4122,-6.1985,0,0,0
-0.0195,0.051,1.0142,1.0992,0.8397,-6.9542,0,0,0
-0.0212,0.0525,1.021,2.0611,-0.3664,-8.2214,0,0,0
-0.0212,0.051,1.0212,2.7176,-0.9466,-8.5954,0,0,0
-0.0249,0.0535,1.0156,3.3588,-1.1603,-9.2672,0,0,0
-0.0271,0.0579,0.999,3.2748,-1.4962,-10.0153,0,0,0
-0.0232,0.0491,1.0007,2.0458,-2.3206,-10.5344,0,0,0
-0.0259,0.0437,0.9949,1.2366,-3.4885,-10.9618,0,0,0
-0.022,0.05,1.01,0.0611,-4.3206,-11.0153,0,0,0
-0.0154,0.0571,1.0198,-1.4733,-3.6107,-11.1221,0,0,0
-0.0149,0.0571,1.0195,-3.4427,-2.5802,-11.7099,0,0,0
-0.0186,0.0557,1.0071,-5.0153,-2.4351,-12.8397,0,0,0
-0.0271,0.0442,1.0017,-5.9237,-3.2595,-13.8244,0,0,0
-0.0322,0.0264,1.0276,-7.7405,-3.5725,-13.0076,0,0,0
-0.0347,0.009,1.0527,-7.3511,-2.6412,-10.8702,0,0,0
-0.0361,-0.0046,1.061,-6.4275,-1.6641,-7.7557,0,0,0
-0.0535,0.0144,1.0771,-3.7099,0.0687,-5.2366,0,0,0
-0.042,0.0149,1.0613,-0.9466,1.0153,-3.3053,0,0,0
-0.033,0.0308,1.0354,-0.3206,-0.3282,-2.229,0,0,0
-0.0283,0.0413,1.0312,-0.0076,-0.6489,-2.1069,0,0,0
-0.0281,0.0415,1.0242,-0.687,-1.7786,-3.2901,0,0,0
-0.0254,0.0386,1.0195,-1.2214,-2.9771,-3.5496,0,0,0
-0.0276,0.0298,1.0354,-1.5802,-3.2443,-3.3893,0,0,0
-0.0325,0.0283,1.0559,-0.771,-1.8244,-2.6107,0,0,0
-0.0261,0.0291,1.0618,-0.2672,0.0,-2.0076,0,0,0
-0.0276,0.0374,1.0527,0.0458,1.6718,-0.855,0,0,0
-0.019,0.0459,1.0251,-0.0229,1.5191,-0.4504,0,0,0
-0.0203,0.05,1.0095,-0.9924,1.2214,-0.4198,0,0,0
-0.0164,0.0513,1.0071,-1.7557,0.4046,-1.2977,0,0,0
-0.0198,0.0435,1.0129,-2.145,-0.6794,-2.1069,0,0,0
-0.0181,0.0383,1.0156,-2.1145,-1.8855,-2.2595,0,0,0
-0.0256,0.0342,1.0276,-2.084,-2.5573,-1.7557,0,0,0
-0.0254,0.0437,1.0344,-1.1985,-1.5038,-1.1603,0,0,0
-0.0168,0.0459,1.0156,-2.0687,-0.084,-0.9389,0,0,0
-0.0125,0.0366,1.0166,-3.0992,-0.145,-0.7786,0,0,0
-0.0215,0.04,1.0203,-2.5038,-1.1374,-0.9771,0,0,0
-0.0229,0.0364,1.0107,-2.374,-2.6489,-0.4809,0,0,0
-0.0154,0.0417,1.0317,-2.2366,-3.1756,0.229,0,0,0
-0.011,0.0503,1.051,-2.7939,-2.229,0.6947,0,0,0
-0.0154,0.0542,1.0293,-3.4275,-0.0305,-0.2901,0,0,0
-0.0144,0.042,1.0312,-4.4275,0.8244,-0.6336,0,0,0
-0.0195,0.0364,1.0281,-4.1832,-0.229,-0.374,0,0,0
-0.0188,0.0398,1.0427,-3.1908,-0.6718,-0.3893,0,0,0
-0.0171,0.0408,1.0491,-2.313,-0.4427,-0.2901,0,0,0
-0.0203,0.0396,1.0408,-1.6718,0.4275,-0.8244,0,0,0
-0.0154,0.0447,1.0347,-2.0458,0.8779,-1.4198,0,0,0
-0.0178,0.0408,1.0342,-2.2977,0.9924,-1.2519,0,0,0
-0.0344,0.0449,1.0208,-1.5344,1.2519,-1.4809,0,0,0
-0.03,0.0303,1.0085,-0.6947,-0.0992,-1.2519,0,0,0
-0.0259,0.0308,1.0276,-0.6183,-1.2595,-0.7252,0,0,0
-0.0264,0.0371,1.0222,-0.3588,-1.9237,-0.2672,0,0,0
-0.0225,0.0349,1.0339,-0.5267,-1.771,-0.1679,0,0,0
-0.019,0.0381,1.0483,-0.4198,-0.687,0.1069,0,0,0
-0.0217,0.0437,1.0454,-0.2061,0.3817,0.1527,0,0,0
-0.0144,0.0427,1.0186,-0.1145,-0.0076,0.8626,0,0,0
-0.0088,0.0469,1.0229,-0.6031,-0.7405,0.8855,0,0,0
-0.0115,0.0542,1.0266,-1.2824,-0.5191,-0.0229,0,0,0
-0.0183,0.0476,1.031,-1.9389,-0.1603,-1.5191,0,0,0
-0.0237,0.0396,1.0322,-2.0611,0.855,-1.6641,0,0,0
-0.0244,0.0315,1.0281,-1.5038,0.9313,-0.7557,0,0,0
-0.0266,0.0381,1.0188,-1.4656,0.6641,0.2443,0,0,0
-0.0281,0.0439,1.0122,-1.7176,-0.5573,0.2595,0,0,0
-0.0293,0.0439,1.0181,-2.6565,-1.0916,0.3817,0,0,0
-0.0273,0.0386,1.0376,-2.4809,-1.1832,0.3511,0,0,0
-0.0208,0.0383,1.0393,-1.458,-0.6565,0.5954,0,0,0
-0.0168,0.0508,1.0322,-0.8473,-0.229,0.8092,0,0,0
-0.0156,0.0571,1.0159,-1.1908,-0.1908,0.1679,0,0,0
-0.0186,0.0571,1.0154,-1.6794,-0.8855,-1.0763,0,0,0
-0.0198,0.0476,1.02,-1.626,-1.5878,-2.0992,0,0,0
-0.0273,0.0437,1.0344,-0.6489,-2.0153,-2.1221,0,0,0
-0.0217,0.0322,1.0481,0.4885,-1.5802,-1.7023,0,0,0
-0.0154,0.0405,1.053,-0.1908,0.0076,0.0076,0,0,0
-0.0129,0.0486,1.0496,-1.542,2.1145,1.0,0,0,0
-0.0129,0.0601,1.0264,-3.1221,3.229,0.4885,0,0,0
-0.0081,0.054,1.0127,-4.2977,2.8626,-0.7099,0,0,0
-0.0164,0.0498,1.0085,-4.6947,1.7328,-1.3817,0,0,0
-0.0325,0.0486,1.0215,-3.6031,0.2519,-2.0,0,0,0
-0.0342,0.0354,1.031,-1.0534,-0.8931,-2.4885,0,0,0
-0.0256,0.0269,1.0288,0.7557,-1.9771,-2.4046,0,0,0
-0.0242,0.0349,1.0251,1.0992,-2.5878,-1.9313,0,0,0
-0.0251,0.0378,1.0259,0.9389,-2.1756,-1.1221,0,0,0
-0.0261,0.0417,1.021,0.1527,-0.7099,-0.9542,0,0,0
-0.0237,0.04,1.0237,-1.7863,-0.626,-0.4504,0,0,0
-0.0281,0.0349,1.0278,-3.6641,0.7863,0.0992,0,0,0
-0.0361,0.0342,1.0271,-3.313,0.771,0.1221,0,0,0
-0.0359,0.0317,1.0227,-2.8168,-0.2061,0.7863,0,0,0
-0.0273,0.0403,1.022,-2.0305,-1.6412,1.0916,0,0,0
-0.0251,0.0498,1.0315,-0.7405,-1.9695,1.3435,0,0,0
-0.02,0.0601,1.019,-0.0611,-2.0992,0.9695,0,0,0
-0.0142,0.0593,1.0193,0.2595,-2.7634,0.0763,0,0,0
-0.0122,0.0674,1.0215,0.145,-2.3435,-0.7481,0,0,0
-0.0142,0.0593,1.0217,-0.0611,-2.1221,-1.3969,0,0,0
-0.0127,0.0596,1.0317,-1.5344,-2.0305,-2.0153,0,0,0
-0.0188,0.0601,1.0344,-1.9466,-1.2443,-2.1908,0,0,0
-0.0212,0.0496,1.0347,-2.2214,-0.6336,-2.4656,0,0,0
-0.0217,0.0435,1.0266,-2.9008,-0.7863,-2.2901,0,0,0
-0.0242,0.0496,1.0237,-2.6718,-0.5573,-2.0458,0,0,0
-0.0266,0.0398,1.0242,-2.1603,-0.6718,-2.2443,0,0,0
-0.0273,0.0417,1.0171,-1.4809,-1.1908,-2.0153,0,0,0
-0.0229,0.0381,1.0283,-1.145,-1.1756,-1.7863,0,0,0
-0.0293,0.0425,1.0269,-0.7863,-0.542,-1.3893,0,0,0
-0.0186,0.0383,1.0198,-0.7863,-0.2214,-1.0,0,0,0
-0.0178,0.0435,1.0181,-1.4198,-0.0992,-0.9847,0,0,0
-0.0195,0.0442,1.0151,-1.5115,-0.3206,-1.2672,0,0,0
-0.0229,0.0398,1.0286,-1.2901,0.4809,-1.2595,0,0,0
-0.019,0.0422,1.0239,-1.0534,1.3511,-1.2824,0,0,0
-0.0242,0.0415,1.0054,-1.9313,0.542,-1.1374,0,0,0
-0.0222,0.0369,1.0249,-1.6336,-0.5115,-0.4275,0,0,0
-0.0149,0.0405,1.019,-1.5802,-0.6947,0.0458,0,0,0
-0.0186,0.0486,1.0227,-1.1756,-0.2672,0.084,0,0,0
-0.0271,0.0432,1.0186,-1.687,-0.2672,-0.8855,0,0,0
-0.0281,0.0459,1.0166,-1.2901,-0.3359,-1.3206,0,0,0
-0.0264,0.04,1.0083,-1.9695,-0.9771,-1.0534,0,0,0
-0.0264,0.0298,1.0247,-2.687,-1.2519,-0.1298,0,0,0
-0.0259,0.0371,1.0256,-2.5344,-0.6947,0.771,0,0,0
-0.0229,0.0391,1.0295,-2.8015,-0.1145,1.2214,0,0,0
-0.0217,0.0427,1.031,-2.626,0.3817,1.542,0,0,0
-0.0278,0.0479,1.0183,-1.8931,1.084,0.7405,0,0,0
-0.0295,0.0493,0.998,0.0916,-0.855,1.0305,0,0,0
-0.0164,0.0598,1.0134,1.3359,-3.626,0.3359,0,0,0
-0.0183,0.0657,1.0242,1.6489,-4.5191,-0.4427,0,0,0
-0.0115,0.0703,1.03,1.3893,-4.8321,-1.0534,0,0,0
-0.0076,0.0574,1.0386,0.2061,-3.0687,-1.145,0,0,0
-0.002,0.0579,1.0386,-1.3282,-0.916,-0.9237,0,0,0
-0.011,0.0598,1.0415,-2.542,1.3359,-1.2137,0,0,0
-0.0173,0.0583,1.0286,-1.8779,2.1756,-1.3969,0,0,0
-0.0205,0.054,1.0181,-0.9084,1.4275,-1.7023,0,0,0
-0.0171,0.054,1.0073,-0.1908,-1.0382,-1.8092,0,0,0
-0.0183,0.0486,1.0093,0.1908,-2.9389,-1.5191,0,0,0
-0.0173,0.0481,1.0149,0.7328,-3.7176,-2.2443,0,0,0
-0.01,0.0522,1.0132,-0.4962,-5.3206,-1.771,0,0,0
-0.0115,0.0518,1.0322,-2.145,-5.6336,-1.9313,0,0,0
-0.0166,0.0505,1.0403,-3.626,-4.2214,-2.1298,0,0,0
-0.0132,0.0371,1.0466,-4.7252,-3.2672,-1.9008,0,0,0
-0.0146,0.0366,1.0479,-6.084,-3.0687,-0.7557,0,0,0
-0.0146,0.0396,1.0598,-4.7939,-2.3511,-0.2366,0,0,0
-0.0198,0.0376,1.0569,-4.4122,-2.7176,0.0458,0,0,0
-0.0164,0.0588,1.0608,-4.9466,-1.9313,-0.9389,0,0,0
-0.0215,0.053,1.0708,-4.2137,-0.8092,-1.9542,0,0,0
-0.0225,0.0452,1.064,-3.7634,-0.5573,-2.2672,0,0,0
-0.0271,0.04,1.0833,-2.2137,-0.4427,-1.8779,0,0,0
-0.0273,0.0447,1.0669,-1.1679,0.1603,-1.8855,0,0,0
-0.0242,0.0486,1.0439,-0.2901,-0.2748,-1.8779,0,0,0
-0.0178,0.0461,1.0535,-0.687,-1.1374,-1.9771,0,0,0
-0.0144,0.0442,1.0586,-0.6641,-0.2443,-1.6947,0,0,0
-0.0059,0.0518,1.0564,-1.4275,1.1985,-1.3435,0,0,0
-0.0144,0.0508,1.0332,-2.4656,2.5878,-0.7939,0,0,0
-0.0098,0.0491,1.0308,-3.0687,3.3206,-1.2366,0,0,0
-0.011,0.0469,1.0344,-2.6183,3.3282,-1.6107,0,0,0
-0.0146,0.0464,1.0217,-1.2901,3.0382,-1.4122,0,0,0
-0.0115,0.0464,1.0088,0.3588,1.3053,-1.313,0,0,0
-0.0103,0.0474,1.0034,1.0687,0.4351,-1.8015,0,0,0
-0.0115,0.0542,1.0049,0.8855,-0.1527,-2.4427,0,0,0
-0.0149,0.054,1.0066,-0.2672,0.3817,-3.145,0,0,0
-0.0151,0.0527,0.9993,-1.7786,0.6183,-2.6565,0,0,0
-0.0212,0.0471,1.0183,-3.1756,0.8015,-2.2672,0,0,0
-0.0247,0.0393,1.0261,-3.6107,1.1145,-1.6718,0,0,0
-0.0283,0.04,1.0188,-4.145,1.1221,-0.771,0,0,0
-0.0261,0.0452,1.0132,-4.0916,-0.5802,0.145,0,0,0
-0.0249,0.0496,1.0305,-3.8321,-1.0,-0.6107,0,0,0
-0.0154,0.0347,1.0322,-2.7328,-1.313,-0.6031,0,0,0
-0.0173,0.0444,1.0312,-1.2977,-1.3969,-1.1908,0,0,0
-0.0112,0.0378,1.0286,0.5115,-1.9695,-1.5038,0,0,0
-0.0103,0.0356,1.0364,1.2824,-1.7328,-1.4962,0,0,0
-0.0093,0.04,1.0298,1.4809,-1.0763,-1.4656,0,0,0
-0.0115,0.0366,0.9998,0.7786,-1.5954,-0.9847,0,0,0
-0.009,0.0437,1.0237,-0.3359,-2.0534,-0.9008,0,0,0
-0.009,0.0222,1.033,-1.3664,-1.5649,-0.1298,0,0,0
-0.0037,0.0342,1.0308,-3.1985,-1.3511,-0.1527,0,0,0
-0.0054,0.0347,1.0498,-3.9771,0.1221,-0.5878,0,0,0
-0.0122,0.0425,1.0457,-3.4733,1.4733,-1.9313,0,0,0
-0.0273,0.0417,1.0361,-2.626,2.1069,-2.3282,0,0,0
-0.032,0.0281,1.0212,-0.9008,1.6183,-2.1603,0,0,0
-0.041,0.0266,1.0037,-0.1145,-0.3359,-1.4504,0,0,0
-0.041,0.0315,1.021,0.3969,-1.8168,-0.0305,0,0,0
-0.0461,0.0247,1.0261,1.1832,-2.229,0.9771,0,0,0
-0.0352,0.0291,1.0249,0.9313,-2.6641,2.374,0,0,0
-0.0356,0.0366,1.0322,1.0382,-3.3969,3.2519,0,0,0
-0.0205,0.0457,1.0449,0.7099,-3.0611,4.2824,0,0,0
-0.009,0.0537,1.0549,0.2443,-2.0992,4.7176,0,0,0
0.0044,0.0647,1.0571,0.1985,-0.5573,4.1069,0,0,0
0.0007,0.0715,1.063,1.3511,0.7405,2.7252,0,0,0
-0.0049,0.0684,1.0518,2.2595,0.8702,0.7405,0,0,0
-0.0088,0.0642,1.0408,3.313,0.4962,-0.9542,0,0,0
-0.0103,0.0581,1.0432,3.7023,0.1603,-1.6412,0,0,0
-0.0095,0.0571,1.0371,3.9237,0.8779,-1.4198,0,0,0
-0.0156,0.0603,1.0388,3.458,1.8244,-0.9313,0,0,0
-0.0122,0.053,1.0564,4.145,3.229,0.1145,0,0,0
-0.0105,0.0525,1.0508,5.2214,4.4351,0.8168,0,0,0
-0.0122,0.0674,1.0466,6.5115,5.2137,0.0382,0,0,0
-0.0105,0.0671,1.0408,7.916,5.7481,-1.4122,0,0,0
-0.0154,0.0669,1.0168,9.0,5.8397,-2.6107,0,0,0
-0.0256,0.0627,0.9995,9.4275,4.0305,-3.8015,0,0,0
-0.0349,0.0547,0.9956,9.5115,1.7557,-4.0153,0,0,0
-0.0356,0.0479,1.0088,9.0305,1.1145,-3.3053,0,0,0
-0.0337,0.0464,1.0063,6.7634,0.8397,-0.6565,0,0,0
-0.0281,0.0544,1.0171,4.4809,1.5725,1.3053,0,0,0
-0.033,0.0725,1.0061,2.1374,2.916,3.1985,0,0,0
-0.0261,0.0857,0.9971,0.2443,2.7405,4.0458,0,0,0
-0.021,0.0896,1.0022,-1.5954,1.5802,3.9618,0,0,0
-0.0161,0.0964,1.0112,-2.542,1.313,2.6336,0,0,0
-0.0186,0.1033,1.0183,-2.4809,1.374,0.2977,0,0,0
-0.0139,0.0955,1.0232,-2.7939,1.0534,-0.7023,0,0,0
-0.0144,0.0901,1.0454,-2.1756,1.2977,-1.4198,0,0,0
-0.0242,0.0977,1.0393,-1.229,2.6412,-1.7634,0,0,0
-0.0288,0.0964,1.0334,-1.2595,2.5115,-1.9771,0,0,0
-0.0313,0.1018,1.0295,-1.5038,2.0916,-2.7099,0,0,0
-0.0356,0.0862,1.0408,-0.6641,1.5725,-3.4046,0,0,0
-0.0244,0.0828,1.0356,-0.855,1.4046,-3.6641,0,0,0
-0.0251,0.0811,1.0496,-0.8015,2.0229,-3.5954,0,0,0
-0.0266,0.0803,1.0464,-0.5878,3.0458,-3.5267,0,0,0
-0.0239,0.0789,1.042,-0.313,3.9237,-3.8855,0,0,0
-0.0273,0.0774,1.0347,-0.8855,4.7099,-4.916,0,0,0
-0.0337,0.0754,1.0208,-0.4962,4.771,-5.9237,0,0,0
-0.0313,0.0647,1.0193,-0.4733,4.1756,-6.1756,0,0,0
-0.0415,0.0637,1.0168,-0.9618,3.3969,-6.5267,0,0,0
-0.0444,0.0618,1.0229,-0.5878,3.4198,-6.2824,0,0,0
-0.0498,0.0576,1.0093,-0.1832,2.7557,-5.5191,0,0,0
-0.0498,0.0581,1.0164,0.0305,2.0992,-5.0611,0,0,0
-0.0479,0.0667,1.0093,0.0229,1.3588,-4.3969,0,0,0
-0.0491,0.0645,1.0139,-0.2519,1.2443,-4.1985,0,0,0
-0.0466,0.0723,1.0164,-0.9695,1.3893,-3.6183,0,0,0
-0.0469,0.0664,1.0039,-1.916,1.542,-3.2137,0,0,0
-0.0457,0.0706,1.019,-3.0153,1.0534,-2.7176,0,0,0
-0.0449,0.0703,1.0337,-3.5267,0.855,-1.855,0,0,0
-0.0437,0.0676,1.0281,-3.3282,1.374,-1.0687,0,0,0
-0.042,0.0776,1.0317,-3.313,1.7863,-1.0076,0,0,0
-0.0383,0.082,1.0269,-2.6031,1.313,-0.7099,0,0,0
-0.0347,0.0847,1.0325,-1.9237,1.2672,-1.145,0,0,0
-0.0342,0.0918,1.0322,-1.1832,1.7405,-2.2214,0,0,0
-0.0354,0.0859,1.0247,-1.0076,1.5725,-2.6183,0,0,0
-0.0337,0.0891,1.0242,-1.0382,1.2061,-2.7557,0,0,0
-0.032,0.0881,1.0317,-0.3817,1.4046,-3.0763,0,0,0
-0.033,0.0898,1.0283,-0.3893,1.3435,-3.1908,0,0,0
-0.0269,0.0906,1.0249,-0.2443,1.3664,-4.1221,0,0,0
-0.0374,0.083,1.0312,-0.6336,2.0611,-5.0687,0,0,0
-0.0354,0.0708,1.0298,-1.4656,2.313,-5.5573,0,0,0
-0.0366,0.0623,1.0337,-2.7481,2.2901,-4.9008,0,0,0
-0.0471,0.0627,1.0383,-3.3893,3.3969,-3.8626,0,0,0
-0.0527,0.0591,1.0452,-3.4427,4.3511,-2.8015,0,0,0
-0.0547,0.0513,1.0342,-2.5878,4.2595,-1.9847,0,0,0
