ax,ay,az,gx,gy,gz,left_click,right_click
-0.1013,-0.0015,1.0542,-1.0,-4.9618,-2.0229,0,0,0
-0.1169,0.012,1.0525,-1.7176,-5.7328,-2.2977,0,0,0
-0.1013,-0.0027,1.05,-2.1985,-5.458,-1.8855,0,0,0
-0.1123,-0.0029,1.0435,-2.1985,-3.7176,-2.458,0,0,0
-0.1072,-0.01,1.0369,-2.1145,-3.2214,-3.3435,0,0,0
-0.0837,-0.0132,1.0269,-1.3588,-2.4427,-2.1603,0,0,0
-0.1157,-0.0166,1.0103,0.9771,0.3893,-1.4962,0,0,0
-0.1619,0.0159,1.0291,1.145,-1.6336,-2.8015,0,0,0
-0.1475,0.0232,1.0618,-2.5496,-4.7939,-4.5649,0,0,0
-0.1272,-0.0024,1.0488,-5.2214,-5.4198,-5.6718,0,0,0
-0.1077,-0.0137,1.0415,-4.7634,-5.5802,-5.3893,0,0,0
-0.0986,-0.0164,1.0273,-4.3282,-4.4656,-4.5649,0,0,0
-0.0933,-0.0178,1.0151,-3.3817,-2.8473,-3.5496,0,0,0
-0.1128,-0.0181,0.9976,-1.8702,-3.3053,-2.3282,0,0,0
-0.1006,-0.0134,1.0193,-1.229,-3.855,-2.2061,0,0,0
-0.0842,-0.0283,1.0247,-1.4198,-1.5802,-2.1374,0,0,0
-0.0918,-0.0266,1.0315,-1.2366,-0.5344,-1.5573,0,0,0
-0.0901,-0.0303,1.031,-1.5725,-0.3053,-1.2519,0,0,0
-0.094,-0.0259,1.0178,-2.4656,-1.4046,-0.7786,0,0,0
-0.0901,-0.0239,1.0234,-2.6183,-2.1832,0.6641,0,0,0
-0.0872,-0.0205,1.0149,-1.6336,-2.4656,0.7176,0,0,0
-0.0793,-0.0205,1.0286,-1.313,-0.8473,1.8779,0,0,0
-0.0925,-0.0156,1.0256,-0.9618,-0.0611,3.2977,0,0,0
-0.1089,-0.0032,1.0251,-0.7634,0.2824,2.7786,0,0,0
-0.1174,-0.001,1.0376,-0.6718,-0.084,1.8779,0,0,0
-0.1169,0.0056,1.04,-1.4046,-0.2977,2.1832,0,0,0
-0.1267,0.0139,1.0332,-2.4504,0.2748,1.3893,0,0,0
-0.1279,0.0168,1.0203,-3.6031,-0.4427,0.0458,0,0,0
-0.1169,0.001,1.0039,-3.4198,-1.2748,-0.5954,0,0,0
-0.1077,0.0029,1.0088,-2.2137,-1.3969,-0.1527,0,0,0
-0.1047,-0.0015,1.0017,-1.2366,-0.542,-0.3282,0,0,0
-0.1145,-0.0024,1.0105,-0.313,-1.2901,-0.2061,0,0,0
-0.0947,-0.0051,1.0278,-0.2672,-1.2595,-0.9313,0,0,0
-0.0981,-0.0078,1.0261,-1.0153,-0.542,0.542,0,0,0
-0.1091,-0.0037,1.0203,-1.2824,-1.2519,-0.1221,0,0,0
-0.0815,-0.0173,1.0305,-0.6641,-0.5344,-0.1069,0,0,0
-0.0671,-0.0269,1.031,-0.0458,0.916,1.5802,0,0,0
-0.0823,-0.01,1.0383,0.6947,2.7405,2.6947,0,0,0
-0.0898,-0.0076,1.04,0.8702,3.8855,2.8702,0,0,0
-0.0896,-0.0024,1.0554,1.1603,5.9008,3.313,0,0,0
-0.0969,0.002,1.0642,1.4656,9.7939,3.9008,0,0,0
-0.083,-0.0244,1.0767,2.1603,19.7405,2.1069,0,0,0
-0.0195,-0.0684,1.0522,7.0229,35.1527,1.145,0,0,0
-0.0364,-0.0496,1.0332,12.7099,43.3511,8.2824,0,0,0
-0.0466,-0.0044,1.0332,17.0382,52.6641,12.0534,0,0,0
-0.0576,-0.0237,1.042,20.458,66.7252,12.3435,0,0,0
-0.0723,0.0137,1.061,23.3588,79.6794,14.7481,0,0,0
0.0945,-0.04,1.1487,22.145,95.9084,23.9924,0,0,0
-0.0215,0.0349,1.1404,17.7634,112.1527,24.6794,0,0,0
-0.248,0.0637,1.0229,13.2901,122.6031,21.2672,0,0,0
-0.3,0.0771,1.0168,10.8626,118.7328,16.8702,0,0,0
-0.3582,0.1082,1.0105,2.6412,108.9771,12.8168,0,0,0
-0.4031,0.1223,0.9705,-5.0382,95.2977,8.6641,0,0,0
-0.3872,0.0618,0.9648,-6.8321,88.4198,4.9618,0,0,0
-0.3694,0.0603,0.9683,-9.2061,84.3359,1.6718,0,0,0
-0.3713,0.05,0.926,-8.626,76.9618,0.6336,0,0,0
-0.3357,0.0537,0.9221,-9.7176,70.1832,1.4809,0,0,0
-0.3896,0.0571,0.9312,-11.1985,63.1069,-0.2901,0,0,0
-0.3667,0.0313,0.9487,-12.5649,54.8015,-0.5038,0,0,0
-0.3345,0.0776,0.9631,-15.7634,52.5954,-2.5725,0,0,0
-0.3591,-0.0105,0.9724,-14.5802,58.8473,-4.2748,0,0,0
-0.3894,0.019,0.9578,-16.1527,62.0916,-4.1985,0,0,0
-0.3936,0.0164,0.929,-17.0382,55.4733,0.6947,0,0,0
-0.425,0.0042,0.8831,-15.1679,46.6641,2.9084,0,0,0
-0.4512,0.0159,0.863,-12.0992,37.2901,-0.1832,0,0,0
-0.5007,0.0034,0.8354,-8.7939,22.1679,-1.8244,0,0,0
-0.479,0.0154,0.8396,-6.855,2.8321,-0.4351,0,0,0
-0.4629,0.0325,0.8384,-6.7099,-11.374,-0.8168,0,0,0
-0.4634,0.0269,0.8459,-5.4046,-22.4504,-3.3969,0,0,0
-0.4885,0.0342,0.8369,-4.5344,-37.9618,-5.9924,0,0,0
-0.4326,0.0244,0.877,-3.4733,-49.1221,-7.1832,0,0,0
-0.3838,0.01,0.9155,-2.6947,-48.5802,-7.8168,0,0,0
-0.3276,-0.0142,0.9666,-1.5878,-38.5344,-5.9771,0,0,0
-0.3179,-0.0044,0.9785,0.4275,-22.4733,-3.7863,0,0,0
-0.3521,0.0017,0.9675,1.0534,-13.0611,-1.3511,0,0,0
-0.3787,0.0313,0.9385,-0.5954,-11.3893,0.5115,0,0,0
-0.386,0.0073,0.9265,0.6947,-14.1527,-0.8244,0,0,0
-0.4143,0.0154,0.9019,1.7252,-24.1908,-0.7328,0,0,0
-0.4229,0.0166,0.9014,4.1069,-40.7481,-1.0305,0,0,0
-0.4348,0.0415,0.8962,4.2901,-55.0687,-1.1832,0,0,0
-0.4072,0.0334,0.928,4.687,-66.4351,-2.7939,0,0,0
-0.3308,0.0093,0.9902,5.1221,-65.3511,-3.6794,0,0,0
-0.3047,0.0142,1.0173,4.3435,-56.855,-3.771,0,0,0
-0.3083,0.0007,1.0186,4.5191,-50.3206,-3.7099,0,0,0
-0.4866,0.1221,0.9541,3.3206,-59.0,-9.7939,0,0,0
-0.3103,0.0486,1.0322,-4.3282,-62.0611,-11.9237,0,0,0
-0.2388,0.0271,1.0212,-8.2748,-57.2519,-11.687,0,0,0
-0.2068,-0.0105,1.0076,-5.2519,-49.4504,-10.7557,0,0,0
-0.2002,-0.002,1.0024,-3.2519,-39.6031,-8.3206,0,0,0
-0.1721,-0.0212,1.0029,-0.7481,-26.7786,-3.4962,0,0,0
-0.2461,-0.0005,0.967,0.7557,-20.4504,-0.8397,0,0,0
-0.2998,0.0227,0.9436,3.4504,-26.5878,-1.9237,0,0,0
-0.2781,0.0229,0.9795,2.9847,-32.4885,-3.1756,0,0,0
-0.2856,0.0344,0.999,0.5573,-37.0229,-5.8397,0,0,0
-0.2073,-0.0002,1.0129,-0.9008,-38.1221,-5.4962,0,0,0
-0.2363,0.011,1.0046,-1.4275,-34.0305,-5.687,0,0,0
-0.1873,-0.0049,1.0244,-0.8702,-31.9466,-5.2137,0,0,0
-0.1694,0.0037,1.0222,-1.0763,-24.5878,-2.7786,0,0,0
-0.1506,-0.0103,1.0164,-0.4504,-15.9542,-1.0458,0,0,0
-0.1584,-0.012,1.0171,2.084,-7.8015,0.7405,0,0,0
-0.1748,-0.0056,1.041,3.2595,-0.7557,1.5725,0,0,0
-0.2029,0.0125,1.0361,2.1832,4.2061,1.6183,0,0,0
-0.2385,0.0369,1.0208,-0.2672,4.0534,1.7557,0,0,0
-0.2468,0.0298,1.0071,-1.6718,0.771,-0.2748,0,0,0
-0.2261,0.0266,1.0161,-3.0916,-0.2672,-0.6031,0,0,0
-0.2107,0.0127,1.0205,-3.2137,0.4275,-1.5267,0,0,0
-0.207,0.0073,1.0149,-3.3359,1.8626,-0.7405,0,0,0
-0.2212,0.0107,0.999,-3.0305,2.0687,-0.145,0,0,0
-0.2222,0.0139,0.989,-2.5649,1.4427,-0.1527,0,0,0
-0.2427,0.0205,0.991,-2.2824,-0.5344,-0.9924,0,0,0
-0.2175,0.0181,0.9973,-1.5725,-0.855,-2.3282,0,0,0
-0.2207,0.0127,1.002,-1.3664,-0.3511,-2.0229,0,0,0
-0.2129,0.0203,1.0054,-1.0305,-0.0153,-2.0534,0,0,0
-0.2061,0.0137,1.0264,-0.8321,1.313,-2.5573,0,0,0
-0.2124,0.0159,1.0256,-1.3053,1.1069,-1.2672,0,0,0
-0.218,0.0164,1.0269,-2.2901,0.2748,-0.4656,0,0,0
-0.2278,0.0122,1.0161,-3.2443,-0.3969,0.0305,0,0,0
-0.2219,0.0159,1.001,-3.3588,-0.7252,-0.0534,0,0,0
-0.2097,0.0115,0.9885,-2.6031,0.3588,-0.0611,0,0,0
-0.2173,0.0198,0.9849,-1.7786,1.7252,-0.5496,0,0,0
-0.2354,0.0183,0.98,-1.1069,-0.0763,-1.2977,0,0,0
-0.2205,0.0166,1.0002,-0.4962,-0.8015,-1.0305,0,0,0
-0.22,0.0166,1.0173,-1.2519,-0.2443,-0.4275,0,0,0
-0.2234,0.0212,1.0098,-2.2061,0.3969,-0.9466,0,0,0
-0.2163,0.0103,1.0037,-2.2595,0.1145,-1.5878,0,0,0
-0.2065,0.0125,1.0,-2.0382,-0.2366,0.4504,0,0,0
-0.217,0.0107,0.9871,-1.6718,-1.7099,0.5115,0,0,0
-0.2163,0.0159,1.0,-0.5725,-0.9237,-0.0916,0,0,0
-0.2102,0.0095,1.0242,-0.4427,0.8855,-0.1603,0,0,0
-0.2195,0.0232,1.0127,-1.916,1.9008,0.4351,0,0,0
-0.2349,0.0234,1.0068,-2.2748,1.7405,-0.0916,0,0,0
-0.2212,0.0164,1.0061,-2.2443,1.2595,-0.7863,0,0,0
-0.1946,0.0046,1.0132,-2.2595,3.1679,-0.6107,0,0,0
-0.1958,0.0054,1.0151,-1.626,6.4427,0.855,0,0,0
-0.1714,0.0156,1.0435,-2.1679,15.0611,3.2672,0,0,0
-0.1248,-0.021,1.0669,-2.6718,30.5649,4.9542,0,0,0
-0.1255,-0.0356,1.0491,-0.374,43.6641,9.084,0,0,0
-0.1575,-0.0156,1.02,3.6336,56.8473,12.3511,0,0,0
-0.2112,0.0154,1.0032,6.3511,63.2595,11.2137,0,0,0
-0.2764,0.0498,0.9731,5.2214,64.9313,11.0458,0,0,0
-0.1924,0.061,1.0217,5.626,63.916,10.8779,0,0,0
-0.3013,0.0222,0.9578,4.916,63.5649,9.9618,0,0,0
-0.3987,0.0493,0.9531,4.6947,53.542,7.4962,0,0,0
-0.4399,0.0847,0.9812,1.9542,40.374,2.7939,0,0,0
-0.4087,0.0647,0.9775,-4.4122,27.6031,-0.4962,0,0,0
-0.3904,0.0479,0.9463,-6.4885,16.3969,-3.8321,0,0,0
-0.3755,0.0247,0.9297,-6.6718,4.5878,-5.0076,0,0,0
-0.3323,0.0193,0.9485,-5.9771,-2.3282,-3.9695,0,0,0
-0.322,0.01,0.9421,-4.8397,-5.3817,-2.9008,0,0,0
-0.3398,0.0303,0.9192,-3.2366,-8.3206,-2.916,0,0,0
-0.3311,0.0315,0.938,-2.626,-11.2977,-4.0305,0,0,0
-0.2964,0.0139,0.9714,-2.6183,-10.1679,-4.0,0,0,0
-0.2683,-0.0088,1.0015,-0.7557,-4.8931,-1.0916,0,0,0
-0.2859,0.0276,1.0161,-1.4351,2.1832,0.4122,0,0,0
-0.3162,0.0317,0.9983,-3.0153,4.1679,0.7252,0,0,0
-0.3257,0.032,0.9617,-3.3053,3.313,0.0076,0,0,0
-0.3208,0.0186,0.9595,-2.0382,0.5191,-0.0992,0,0,0
-0.324,0.0247,0.9473,-1.4733,-1.7481,1.1298,0,0,0
-0.3281,0.0227,0.9417,0.4885,-4.7252,0.8473,0,0,0
-0.3223,0.0249,0.9587,2.3282,-6.7863,1.2443,0,0,0
-0.3149,0.0208,0.999,1.5573,-6.3588,1.7557,0,0,0
-0.323,0.0361,1.0056,0.145,-5.4198,1.5954,0,0,0
-0.321,0.0183,0.9895,-1.7405,-7.374,3.2595,0,0,0
-0.3008,-0.0071,0.9827,-3.4046,-8.7557,8.2214,0,0,0
-0.2593,-0.0247,0.9856,-3.0458,-10.2443,17.0687,0,0,0
-0.2163,-0.0291,1.0149,-0.8473,-4.8626,21.8015,0,0,0
-0.2478,-0.0078,0.9919,-1.2061,1.9466,25.4351,0,0,0
-0.1643,-0.0425,1.0076,-1.9313,9.5649,31.1603,0,0,0
-0.2471,0.0017,0.9648,-0.7252,14.7099,36.0153,0,0,0
-0.2888,-0.0115,0.9521,0.0076,14.6336,40.9695,0,0,0
-0.3247,0.0654,0.9871,-4.5496,13.4122,42.1908,0,0,0
-0.2834,0.0168,1.0339,-7.2137,15.9237,38.9695,0,0,0
-0.2515,0.0322,1.0454,-10.1145,22.5114,38.7328,0,0,0
-0.2629,0.0234,0.9895,-12.542,28.458,44.1756,0,0,0
-0.2959,-0.0208,0.9709,-10.8931,30.084,50.7328,0,0,0
-0.2668,0.0073,0.9851,-6.2901,29.6183,59.6565,0,0,0
-0.1023,0.051,1.1199,-15.0687,38.9008,76.5344,0,0,0
-0.2632,0.0002,1.0,-17.8626,42.4885,77.7481,0,0,0
-0.3518,0.0608,0.9326,-11.0305,43.9389,77.4198,0,0,0
-0.4053,0.1067,0.9299,-9.0534,43.9618,70.7557,0,0,0
-0.4121,0.0854,0.9666,-9.8092,45.4733,60.145,0,0,0
-0.4255,0.0886,0.9553,-8.2595,42.084,50.0534,0,0,0
-0.4441,0.1069,0.939,-10.0,35.687,45.1832,0,0,0
-0.4495,0.1145,0.9731,-14.9008,29.1221,44.6183,0,0,0
-0.4209,0.075,0.9841,-18.8626,26.1603,40.2519,0,0,0
-0.4009,0.1167,0.9397,-20.4122,25.6641,36.7176,0,0,0
-0.4272,0.0864,0.918,-20.542,22.9008,33.7481,0,0,0
-0.436,0.0784,0.885,-19.458,19.8626,30.9313,0,0,0
-0.4148,0.0786,0.8718,-15.0763,16.6336,28.2061,0,0,0
-0.3796,0.0525,0.887,-11.4198,14.9084,27.5344,0,0,0
-0.3696,0.0613,0.8765,-6.2595,15.3817,29.9542,0,0,0
-0.4761,0.0918,0.8408,-1.0076,14.7557,26.1832,0,0,0
-0.51,0.1379,0.855,3.0153,7.8397,18.0611,0,0,0
-0.5127,0.1477,0.8806,3.2443,2.4046,12.7023,0,0,0
-0.5054,0.1311,0.8931,3.4046,-2.0382,7.5954,0,0,0
-0.4834,0.1445,0.8892,4.0534,-6.3282,3.9389,0,0,0
-0.4966,0.1519,0.894,5.0534,-9.4809,-2.3511,0,0,0
-0.4448,0.1282,0.9282,4.687,-8.2748,-6.2061,0,0,0
-0.4128,0.1064,0.9465,4.5344,-7.4809,-7.3893,0,0,0
-0.4028,0.0942,0.9541,5.3206,-6.2748,-7.1908,0,0,0
-0.4133,0.0994,0.9519,5.313,-6.5496,-7.5649,0,0,0
-0.436,0.1016,0.9541,4.1221,-9.1985,-8.0305,0,0,0
-0.4368,0.093,0.9631,1.6718,-10.7328,-9.2214,0,0,0
-0.4265,0.0847,0.9575,0.5267,-12.6412,-10.6183,0,0,0
-0.4099,0.0715,0.9722,0.0458,-12.855,-11.3588,0,0,0
-0.3962,0.0854,0.9658,-0.4427,-10.9924,-11.4809,0,0,0
-0.3894,0.0752,0.9592,-0.6794,-11.0687,-11.7176,0,0,0
-0.3777,0.0708,0.9521,-1.6641,-10.1527,-10.7481,0,0,0
-0.3928,0.0564,0.9307,-1.4962,-11.3206,-9.0,0,0,0
-0.3923,0.0549,0.9399,-0.1527,-14.2443,-8.0076,0,0,0
-0.3831,0.0889,0.9463,-2.1603,-13.8092,-6.6489,0,0,0
-0.387,0.0442,0.9651,-2.0916,-9.1756,-6.6718,0,0,0
-0.364,0.0371,0.9614,-1.4275,-6.9008,-5.5954,0,0,0
-0.3696,0.0339,0.9563,-1.7099,-9.374,-1.8397,0,0,0
-0.3699,0.0469,0.9436,-2.3817,-13.6565,0.0534,0,0,0
-0.3733,0.0732,0.9341,-3.6412,-16.2519,0.5038,0,0,0
-0.3647,0.0559,0.9519,-5.0763,-16.9542,2.4275,0,0,0
-0.3386,0.0427,0.9685,-6.6718,-13.4733,5.3282,0,0,0
-0.3154,0.0283,0.9602,-5.3053,-6.8931,7.6412,0,0,0
-0.3538,0.0388,0.9387,-2.5954,-3.2595,9.9847,0,0,0
-0.3904,0.072,0.9143,-1.6641,-5.0153,11.7863,0,0,0
-0.4124,0.0652,0.9348,-1.4809,-10.1985,12.8244,0,0,0
-0.3877,0.1123,0.9436,-4.2595,-15.6565,13.6107,0,0,0
-0.3503,0.05,0.9626,-6.5878,-13.5878,11.8626,0,0,0
-0.3083,0.0469,0.9573,-6.0611,-12.9847,13.3817,0,0,0
-0.335,0.0464,0.9458,-5.1603,-14.4656,17.8092,0,0,0
-0.3628,0.0454,0.946,-3.0,-18.5573,20.5191,0,0,0
-0.3562,0.0723,0.9546,-1.7023,-17.1221,20.1603,0,0,0
-0.3691,0.0732,0.9446,-0.5725,-16.6412,19.8397,0,0,0
-0.3875,0.0833,0.9348,0.8931,-21.0305,19.8855,0,0,0
-0.3789,0.1204,0.9404,0.2824,-26.3893,17.9618,0,0,0
-0.4048,0.1099,0.9419,0.0916,-32.6641,15.1756,0,0,0
-0.3723,0.1306,0.9548,-0.2519,-36.8855,14.4046,0,0,0
-0.3872,0.1487,0.957,-1.8473,-37.3511,7.9466,0,0,0
-0.3765,0.1284,0.9536,-2.5725,-39.8321,1.0534,0,0,0
-0.3567,0.1257,0.9446,-3.3817,-47.3664,-1.9084,0,0,0
-0.323,0.1079,0.9568,-3.9847,-52.4427,-2.0687,0,0,0
-0.3289,0.1074,0.9426,-3.0076,-55.6794,-5.5267,0,0,0
-0.3474,0.1423,0.9465,-1.0076,-57.9924,-9.1145,0,0,0
-0.3342,0.1365,0.9863,-1.8931,-59.4122,-13.1985,0,0,0
-0.2561,0.114,1.0161,-2.4198,-53.7023,-15.4809,0,0,0
-0.2148,0.0725,1.0071,-0.8855,-45.9466,-15.2519,0,0,0
-0.1836,0.0745,1.0198,2.4122,-35.8855,-13.145,0,0,0
-0.1904,0.0776,1.0229,2.6565,-28.5878,-9.4733,0,0,0
-0.1887,0.0889,1.0208,1.4046,-23.7939,-7.5267,0,0,0
-0.1611,0.0535,1.0437,2.4122,-14.8168,-4.9237,0,0,0
-0.1841,0.0664,1.0156,2.4427,-11.9542,-2.3359,0,0,0
-0.1912,0.061,1.0254,2.1679,-14.5115,0.2824,0,0,0
-0.2292,0.0979,1.0149,-0.4275,-17.6794,2.5573,0,0,0
-0.2422,0.0791,1.0144,-3.7481,-25.0229,2.313,0,0,0
-0.2185,0.0798,1.012,-5.2824,-28.2977,2.229,0,0,0
-0.1848,0.0542,1.0244,-5.1908,-25.3359,2.7863,0,0,0
-0.1479,0.0618,1.0212,-2.8855,-15.1985,3.7099,0,0,0
-0.1785,0.0703,1.0149,-0.7099,-3.916,3.3817,0,0,0
-0.2048,0.0928,1.002,0.5954,0.7634,2.1069,0,0,0
-0.2163,0.0891,1.0088,0.5038,1.5191,1.229,0,0,0
-0.1948,0.0852,1.0266,0.6183,3.8931,1.0916,0,0,0
-0.2024,0.0923,1.0195,1.0534,8.2748,2.6718,0,0,0
-0.217,0.1042,1.0049,2.1908,10.0229,1.8321,0,0,0
-0.2529,0.1108,1.0015,1.458,9.1908,0.3893,0,0,0
-0.252,0.1248,1.0137,-0.229,6.0763,-0.9237,0,0,0
-0.2322,0.0942,1.0212,-1.2901,6.8779,-2.9618,0,0,0
-0.2161,0.1003,1.0134,-1.5878,8.6565,-1.6641,0,0,0
-0.2068,0.0781,1.0034,-1.2519,11.2214,-2.1603,0,0,0
-0.2141,0.0801,0.988,1.2214,12.5038,-1.1221,0,0,0
-0.2183,0.0876,0.9868,2.1374,11.542,-0.0305,0,0,0
-0.2424,0.1086,0.9832,1.5649,10.5649,-0.1603,0,0,0
-0.2664,0.1169,0.9951,-0.7863,6.6947,-2.4122,0,0,0
-0.2424,0.0994,1.0044,-2.7405,2.3053,-4.313,0,0,0
-0.2185,0.0884,0.998,-3.8397,0.7863,-4.3893,0,0,0
-0.2231,0.0803,0.989,-3.5191,0.9008,-3.8321,0,0,0
-0.2275,0.0874,0.9951,-3.0916,1.5191,-3.3206,0,0,0
-0.2246,0.0908,1.0073,-3.4733,2.5496,-3.5649,0,0,0
-0.2314,0.0818,1.0056,-4.2519,2.3893,-3.313,0,0,0
-0.2302,0.1006,0.9958,-4.2519,3.6412,-4.0687,0,0,0
-0.248,0.0901,0.9949,-4.1374,0.3511,-5.7023,0,0,0
-0.2244,0.0867,0.9993,-4.0305,-2.4275,-5.0916,0,0,0
-0.2205,0.0862,0.9929,-3.6489,-2.0763,-3.1985,0,0,0
-0.2454,0.1074,0.9888,-2.8931,-1.313,-2.4046,0,0,0
-0.2515,0.1016,0.9915,-1.855,-0.0534,-5.6336,0,0,0
-0.2285,0.0908,1.0039,-1.6412,-0.2519,-6.1374,0,0,0
-0.22,0.095,1.0044,-1.6031,1.1832,-4.4504,0,0,0
-0.2341,0.1123,1.0146,-1.9771,3.4351,-4.6336,0,0,0
-0.2449,0.1025,1.0005,-2.458,4.2366,-6.0534,0,0,0
-0.2471,0.0979,0.9934,-1.4275,3.1679,-7.3588,0,0,0
-0.2529,0.1108,0.991,-0.9847,1.3969,-8.4809,0,0,0
-0.2502,0.1067,0.9963,-1.7023,1.2748,-11.7176,0,0,0
-0.2405,0.0989,0.9978,-1.7939,1.3359,-15.3817,0,0,0
-0.2385,0.0798,0.998,-0.1908,1.5802,-18.916,0,0,0
-0.1848,0.0764,1.0044,1.3435,4.1298,-17.2061,0,0,0
-0.2085,0.0654,0.9834,3.5802,6.3664,-16.1756,0,0,0
-0.241,0.0938,0.9592,7.4198,6.8321,-18.6794,0,0,0
-0.2786,0.1047,0.9546,10.1985,5.5496,-25.1679,0,0,0
-0.2715,0.116,0.9587,11.7634,1.9084,-33.1374,0,0,0
-0.2878,0.1162,0.9697,12.6336,-1.5725,-42.0305,0,0,0
-0.2615,0.126,0.9446,16.6031,-3.4962,-54.0916,0,0,0
-0.2603,0.0811,0.9395,22.8626,-3.6565,-61.9924,0,0,0
-0.3096,0.1326,0.9626,22.4046,-8.0,-55.1756,0,0,0
-0.2161,0.0786,1.0461,18.1069,-8.6412,-50.6947,0,0,0
-0.1062,0.0029,1.0486,21.8779,4.9771,-45.771,0,0,0
-0.1301,0.0139,1.0051,31.7557,19.6183,-39.8015,0,0,0
-0.2439,0.063,0.9822,38.1756,24.6336,-39.8702,0,0,0
-0.4014,0.1614,0.9236,34.6412,7.6489,-39.7481,0,0,0
-0.3862,0.1582,0.9817,28.8702,-16.4351,-37.5267,0,0,0
-0.2715,0.1582,1.0359,22.1603,-23.1374,-36.855,0,0,0
-0.2771,0.1279,1.0325,19.4427,-20.5344,-38.1145,0,0,0
-0.2207,0.106,1.0339,19.8015,-17.4504,-37.9847,0,0,0
-0.2156,0.1184,0.9961,18.1985,-12.1908,-32.6336,0,0,0
-0.2783,0.1201,0.9658,17.3664,-12.4504,-28.7405,0,0,0
-0.2991,0.1782,0.9377,15.1527,-16.0611,-30.7023,0,0,0
-0.3152,0.1699,0.9404,12.1069,-26.229,-35.3206,0,0,0
-0.26,0.1423,0.9717,10.4122,-34.8626,-38.3053,0,0,0
-0.1821,0.1079,1.0144,7.8702,-38.1374,-33.855,0,0,0
-0.1323,0.0967,1.012,7.3969,-32.5573,-26.5573,0,0,0
-0.1846,0.0835,0.9868,10.2672,-27.2366,-23.229,0,0,0
-0.1934,0.1052,1.0203,12.6565,-22.542,-23.6031,0,0,0
-0.1638,0.1223,1.0583,12.1145,-17.542,-26.3282,0,0,0
-0.1501,0.1121,1.0249,11.1832,-12.5725,-26.2061,0,0,0
-0.2173,0.1187,0.9851,14.7252,-14.6107,-27.4733,0,0,0
-0.0935,0.1404,1.0874,14.0916,-9.4809,-27.3588,0,0,0
-0.2434,0.1221,0.9749,7.687,-0.1374,-26.229,0,0,0
-0.144,0.1265,1.0022,11.1069,5.0076,-23.6718,0,0,0
-0.2329,0.1626,0.9795,13.2977,7.7176,-25.8702,0,0,0
-0.2214,0.1641,0.9824,14.6565,7.6947,-29.5496,0,0,0
-0.2039,0.1338,0.9824,17.2443,9.2977,-30.4504,0,0,0
-0.2571,0.1616,0.9902,22.5649,11.1527,-36.0229,0,0,0
-0.2356,0.1936,1.0527,22.9008,14.9924,-43.6489,0,0,0
-0.2327,0.1975,1.0518,18.3817,15.4351,-44.9008,0,0,0
-0.2542,0.1919,1.0107,15.7328,14.6031,-47.4275,0,0,0
-0.1768,0.1914,1.0413,13.8702,17.2977,-47.5573,0,0,0
-0.1519,0.1821,1.0598,11.7634,26.626,-51.0458,0,0,0
-0.2092,0.1204,1.0293,12.0229,36.229,-56.145,0,0,0
-0.2544,0.1248,0.9792,15.9771,36.0,-53.9771,0,0,0
-0.2744,0.2256,0.9832,14.0687,36.6947,-52.9924,0,0,0
-0.313,0.1553,0.9963,11.4046,35.5649,-58.8244,0,0,0
-0.281,0.1423,0.9822,12.4504,36.6031,-58.0992,0,0,0
-0.2966,0.1709,0.9138,20.0687,34.7634,-52.6794,0,0,0
-0.3496,0.1733,0.9939,20.9389,33.313,-59.2137,0,0,0
-0.3284,0.2249,0.9656,20.9695,30.8931,-66.5344,0,0,0
-0.2598,0.1819,1.0205,18.0076,28.6794,-66.6183,0,0,0
-0.3779,0.072,0.9185,17.6641,22.3511,-62.458,0,0,0
-0.2825,0.1218,0.9763,11.145,30.7099,-53.084,0,0,0
-0.2747,0.1494,0.9868,16.7099,14.9618,-40.8931,0,0,0
-0.3555,0.0996,0.9751,7.8321,12.1145,-36.0992,0,0,0
-0.3586,0.0933,0.9351,6.7099,3.145,-27.6947,0,0,0
-0.2368,0.2393,0.9687,-2.5115,12.1527,-22.6412,0,0,0
-0.249,0.1328,0.9919,-3.6641,7.6107,-18.2443,0,0,0
-0.3389,0.083,0.9204,-6.9847,7.313,-13.2748,0,0,0
-0.3289,0.1099,0.8884,-4.5191,7.9237,-9.7786,0,0,0
-0.3657,0.1218,0.874,-1.3282,4.9084,-8.458,0,0,0
-0.3555,0.1172,0.8977,1.2214,2.8473,-7.6031,0,0,0
-0.3486,0.1208,0.9292,2.6336,1.7405,-4.7099,0,0,0
-0.4033,0.0588,0.8833,9.6489,-12.6718,3.458,0,0,0
-0.3457,0.2527,1.0225,-0.8397,3.3435,-3.3282,0,0,0
-0.3323,0.1282,1.0005,-2.0534,-1.7099,-7.0916,0,0,0
-0.3083,0.1101,0.9717,-3.2748,-0.0382,0.0534,0,0,0
-0.3247,0.1511,0.9783,-3.5191,0.7481,-0.0687,0,0,0
-0.3484,0.1279,0.9456,-5.1145,0.8092,0.5725,0,0,0
-0.3582,0.1433,0.9543,-3.3817,-1.1527,0.2977,0,0,0
-0.3318,0.1519,0.9814,-4.6565,-0.7176,0.145,0,0,0
-0.325,0.1472,0.9702,-6.7099,1.3206,1.8397,0,0,0
-0.3413,0.1558,0.9587,-6.7939,2.5115,2.9466,0,0,0
-0.385,0.1667,0.9629,-9.0916,1.5496,3.3435,0,0,0
-0.3508,0.1648,0.9775,-12.0,0.542,2.374,0,0,0
-0.3103,0.1284,0.9861,-13.626,3.2672,4.5115,0,0,0
-0.3037,0.1328,0.9741,-12.5954,7.2061,6.6565,0,0,0
-0.3232,0.1716,0.9497,-14.3053,13.8168,4.3282,0,0,0
-0.3528,0.1467,0.9307,-13.1908,13.8931,-0.1145,0,0,0
-0.3418,0.1243,0.9402,-11.1298,11.7023,0.8168,0,0,0
-0.3408,0.1387,0.9602,-10.4733,12.3817,1.9847,0,0,0
-0.3501,0.1621,0.9578,-13.0458,15.229,-0.0076,0,0,0
-0.343,0.1372,0.9565,-14.2595,19.1985,-1.0076,0,0,0
-0.353,0.1396,0.9521,-14.4427,24.0611,-0.6565,0,0,0
-0.3572,0.1401,0.957,-15.1603,29.7786,-1.313,0,0,0
-0.3599,0.1418,0.9458,-16.1145,34.4809,-2.1221,0,0,0
-0.3518,0.1238,0.9578,-16.5725,39.626,-3.5649,0,0,0
-0.3848,0.1523,0.9182,-15.626,39.0763,-2.6183,0,0,0
-0.4063,0.1335,0.9209,-16.0611,34.1756,-2.458,0,0,0
-0.3767,0.1145,0.9399,-14.8397,31.1908,-4.0534,0,0,0
-0.1633,0.1067,0.9668,-13.8473,38.9389,-2.3511,0,0,0
-0.4131,0.0623,0.9329,-10.7328,41.9542,1.374,0,0,0
-0.4397,0.105,0.8904,-8.9084,37.1527,2.0763,0,0,0
-0.5037,0.1172,0.908,-8.0611,32.3817,1.0763,0,0,0
-0.49,0.1326,0.918,-10.0382,27.5344,-2.2214,0,0,0
-0.5339,0.1101,0.9001,-9.9771,20.3282,-3.1985,0,0,0
-0.4507,0.1299,0.9221,-11.2977,16.5267,-3.9084,0,0,0
-0.4617,0.1045,0.9397,-12.6794,15.6031,-3.313,0,0,0
-0.4038,0.127,0.9358,-14.2443,17.0992,-3.916,0,0,0
-0.3315,0.0845,0.9514,-14.9084,27.1756,-3.2519,0,0,0
-0.3777,0.0757,0.926,-15.7634,34.3588,1.4733,0,0,0
-0.4224,0.0562,0.9062,-14.1985,38.0763,6.5573,0,0,0
-0.4895,0.0771,0.8914,-12.2901,38.0916,7.3359,0,0,0
-0.5554,0.0928,0.8806,-10.5191,30.9847,5.1298,0,0,0
-0.5715,0.1116,0.8708,-11.8779,20.0076,4.1069,0,0,0
-0.5623,0.093,0.887,-13.2824,10.8931,2.5115,0,0,0
-0.5168,0.0981,0.9141,-14.626,5.0153,0.3969,0,0,0
-0.4951,0.0762,0.9148,-15.2672,1.855,0.9008,0,0,0
-0.4858,0.0774,0.8977,-16.5725,-0.6107,4.1374,0,0,0
-0.4731,0.0713,0.9045,-17.8092,-2.1908,7.6183,0,0,0
-0.4409,0.0754,0.9165,-19.9008,1.6183,8.6183,0,0,0
-0.3896,0.0369,0.9346,-20.5344,11.2901,11.9313,0,0,0
-0.4009,0.0427,0.9307,-20.0534,19.0534,19.4809,0,0,0
-0.4424,0.0686,0.9067,-20.9389,23.2519,24.0382,0,0,0
-0.5027,0.0698,0.8667,-20.5496,21.9542,24.0611,0,0,0
-0.5366,0.064,0.8477,-16.8015,16.1756,22.374,0,0,0
-0.5476,0.0627,0.8655,-14.8931,9.5496,21.6412,0,0,0
-0.5537,0.073,0.876,-15.6031,1.1298,21.3282,0,0,0
-0.5139,0.0928,0.8948,-16.6412,-3.1603,20.4122,0,0,0
-0.489,0.084,0.8965,-20.6794,-4.229,22.5573,0,0,0
-0.4822,0.0679,0.8889,-22.7023,-3.4885,25.5344,0,0,0
-0.4968,0.0415,0.8538,-24.9771,-8.9313,34.1985,0,0,0
-0.4609,0.0349,0.8662,-25.7099,-16.8626,48.7939,0,0,0
-0.4558,0.0483,0.8857,-26.5802,-20.7023,58.0458,0,0,0
-0.4365,0.0696,0.9041,-25.8931,-19.1985,59.0,0,0,0
-0.4348,0.0586,0.9141,-23.4733,-14.5725,57.4809,0,0,0
-0.4595,0.075,0.8943,-20.2595,-9.687,54.6641,0,0,0
-0.4819,0.0908,0.877,-20.6794,-11.6107,55.6794,0,0,0
-0.4758,0.0908,0.8911,-20.542,-14.0611,54.9847,0,0,0
-0.4514,0.1064,0.9226,-20.8626,-11.8702,51.5115,0,0,0
-0.4812,0.0959,0.9038,-21.5725,-8.9084,46.7863,0,0,0
-0.4863,0.0942,0.8801,-21.0,-8.7176,45.4504,0,0,0
-0.489,0.0955,0.8926,-21.0611,-9.4733,44.4427,0,0,0
-0.4668,0.0872,0.9026,-21.3053,-13.0076,46.1832,0,0,0
-0.457,0.0867,0.9036,-19.6718,-13.313,45.313,0,0,0
-0.4617,0.0925,0.8887,-18.0992,-13.8779,43.1679,0,0,0
-0.4475,0.0803,0.926,-17.3893,-15.1832,39.7939,0,0,0
-0.4382,0.1064,0.8882,-16.5038,-13.5115,39.0,0,0,0
-0.4495,0.085,0.9163,-16.6336,-15.1374,39.4809,0,0,0
-0.4556,0.1082,0.9243,-17.1679,-16.4275,42.0534,0,0,0
-0.4783,0.1101,0.9172,-19.4351,-17.5267,38.374,0,0,0
-0.4895,0.116,0.8992,-17.9924,-23.0534,32.2443,0,0,0
-0.4666,0.1052,0.9067,-16.1985,-25.374,25.1832,0,0,0
-0.4309,0.1013,0.9258,-15.9008,-29.6565,24.8092,0,0,0
-0.3789,0.0847,0.97,-16.4351,-27.145,24.7786,0,0,0
-0.3894,0.0962,0.9377,-17.9466,-27.313,25.542,0,0,0
-0.3811,0.0762,0.9421,-14.4656,-24.8397,25.626,0,0,0
-0.3889,0.113,0.9382,-14.2061,-19.7939,22.3664,0,0,0
-0.4089,0.0984,0.9229,-14.771,-17.5649,21.6336,0,0,0
-0.4214,0.1064,0.9114,-14.1603,-17.374,22.8168,0,0,0
-0.4082,0.0776,0.9331,-13.9924,-19.458,23.5114,0,0,0
-0.3694,0.0684,0.9724,-11.2901,-18.5878,21.5954,0,0,0
-0.3936,0.0889,0.9539,-11.2824,-17.3588,19.3969,0,0,0
-0.4253,0.0977,0.9395,-10.2977,-19.4809,17.1145,0,0,0
-0.4175,0.1138,0.9419,-10.1679,-24.3282,14.1527,0,0,0
-0.3796,0.092,0.9639,-11.084,-25.3969,12.5802,0,0,0
-0.3672,0.0938,0.9675,-12.5573,-23.5649,12.374,0,0,0
-0.3496,0.0715,0.97,-10.855,-19.7786,9.5267,0,0,0
-0.3618,0.0886,0.9382,-9.5191,-18.0382,8.5038,0,0,0
-0.3618,0.075,0.9292,-8.8779,-18.771,10.6489,0,0,0
-0.3894,0.0837,0.9397,-7.7176,-26.1832,12.7939,0,0,0
-0.3586,0.0845,0.9578,-7.5573,-29.7023,11.4351,0,0,0
-0.3552,0.0701,0.9888,-6.5191,-28.1985,9.9695,0,0,0
-0.3621,0.104,0.9878,-6.7863,-27.2824,7.2824,0,0,0
-0.3499,0.0962,0.9797,-8.5191,-28.6183,6.0611,0,0,0
-0.3425,0.0789,0.9663,-8.5573,-31.0763,3.542,0,0,0
-0.2856,0.0957,0.9658,-6.7939,-28.4809,2.1985,0,0,0
-0.2917,0.0698,0.9666,-6.2366,-20.0153,2.626,0,0,0
-0.2729,0.05,0.9832,-3.9389,-13.6794,3.9389,0,0,0
-0.2637,0.0457,0.97,-1.7099,-7.855,5.8779,0,0,0
-0.2959,0.0486,0.9453,2.5038,-6.313,8.0382,0,0,0
-0.3157,0.0505,0.9509,6.2672,-12.771,6.9542,0,0,0
-0.2971,0.0698,0.9561,8.8244,-17.3511,6.1069,0,0,0
-0.2966,0.0557,0.9719,12.145,-16.1298,5.5725,0,0,0
-0.3142,0.1191,0.9998,11.0076,-5.6565,5.3359,0,0,0
-0.4468,0.1182,0.9963,9.7176,-5.7099,-9.2672,0,0,0
-0.3567,0.1609,1.0071,4.8168,-12.4275,-17.5114,0,0,0
-0.2688,0.1162,1.0125,-0.9924,-14.0916,-15.3053,0,0,0
-0.2283,0.1062,0.99,-3.1756,-9.6641,-11.0763,0,0,0
-0.2639,0.0662,0.9602,-0.2443,-2.0763,-10.6718,0,0,0
-0.26,0.0796,0.9429,4.4885,1.1298,-12.0305,0,0,0
-0.2683,0.0886,0.9404,6.7099,4.2519,-10.0229,0,0,0
-0.2827,0.083,0.9519,9.1298,3.0305,-7.9008,0,0,0
-0.2708,0.0959,0.9543,10.2061,4.3359,-6.4885,0,0,0
-0.303,0.0933,0.9597,11.9542,4.8702,-8.313,0,0,0
-0.3457,0.1157,0.959,10.9084,1.2214,-8.3359,0,0,0
-0.3247,0.104,0.9907,7.7939,-2.3969,-7.1069,0,0,0
-0.3152,0.0928,0.9954,5.8397,-4.4198,-5.7634,0,0,0
-0.3064,0.1042,1.0024,4.5496,-3.5038,-4.5344,0,0,0
-0.2744,0.0889,1.002,3.5267,-0.5191,-2.1908,0,0,0
-0.23,0.1108,1.012,2.0153,4.4733,0.2901,0,0,0
-0.2678,0.0935,0.9763,0.6031,8.2366,3.1069,0,0,0
-0.3076,0.0911,0.9634,2.5115,6.6947,3.4427,0,0,0
-0.3218,0.115,0.9714,2.458,4.7786,2.3511,0,0,0
-0.3442,0.1233,0.9714,1.1374,1.0611,0.0153,0,0,0
-0.3311,0.1199,0.9773,-1.145,-0.0992,-1.4046,0,0,0
-0.3267,0.1121,0.9709,-1.9389,-1.8931,-1.6947,0,0,0
-0.3037,0.0957,0.9751,-1.9466,-2.3664,-2.4351,0,0,0
-0.2861,0.1096,0.9783,-1.7634,0.2366,-2.3511,0,0,0
-0.3152,0.1121,0.9648,-2.3817,0.7863,-0.542,0,0,0
-0.3228,0.1064,0.9724,-2.8473,0.626,-1.3511,0,0,0
-0.3213,0.1077,0.967,-2.9313,0.3817,-2.8092,0,0,0
-0.323,0.0994,0.9524,-2.7939,-2.3359,-4.1985,0,0,0
-0.3191,0.104,0.9683,-1.5115,-2.4733,-5.1908,0,0,0
-0.2966,0.0986,0.99,-1.8473,-1.0992,-6.0382,0,0,0
-0.2793,0.0835,0.9929,-2.1756,0.5649,-4.3435,0,0,0
-0.2786,0.0833,0.9849,-1.0305,1.0229,-1.2061,0,0,0
-0.2666,0.0793,0.9841,0.7023,1.5649,1.084,0,0,0
-0.3208,0.1248,0.9607,0.6107,5.7023,0.5725,0,0,0
-0.3918,0.1326,0.9536,0.0153,-0.8779,-3.3206,0,0,0
-0.3384,0.114,1.0046,-1.8473,-6.9695,-6.1679,0,0,0
-0.2996,0.1201,1.0095,-5.1374,-7.6947,-4.916,0,0,0
-0.2834,0.0845,1.0078,-5.5267,-5.5649,-2.313,0,0,0
-0.2764,0.093,0.9873,-4.2137,-1.8779,-0.7863,0,0,0
-0.2749,0.0918,0.9666,-2.9771,0.3435,1.4733,0,0,0
-0.2659,0.0964,0.9607,-0.7786,2.8168,3.542,0,0,0
-0.3396,0.1218,0.9343,1.0534,6.4504,0.8931,0,0,0
-0.3594,0.1238,0.948,1.5115,2.4885,-2.2443,0,0,0
-0.3391,0.1372,0.9658,-1.2977,-1.2748,-1.6412,0,0,0
-0.3296,0.1189,0.9705,-3.8931,-4.0458,-1.6718,0,0,0
-0.3188,0.1069,0.9727,-3.7939,-4.4275,-3.6641,0,0,0
-0.2981,0.0977,0.9792,-2.9695,-4.7557,-4.6489,0,0,0
-0.272,0.0916,0.9868,-3.3817,-3.4427,-3.2061,0,0,0
-0.2759,0.0884,0.9722,-2.6794,-2.0153,-1.7328,0,0,0
-0.271,0.0779,0.98,-0.7939,-0.4656,0.0382,0,0,0
-0.2629,0.0864,0.9824,1.0,3.8397,2.084,0,0,0
-0.312,0.1123,0.9788,0.5496,5.7634,2.7252,0,0,0
-0.3389,0.1155,0.9675,-0.5038,2.8473,2.0458,0,0,0
-0.3311,0.1196,0.969,-2.2748,-0.1603,-0.0229,0,0,0
-0.3252,0.1133,0.9687,-2.9924,-1.1298,-1.6794,0,0,0
-0.3191,0.1072,0.9753,-3.1679,-2.2061,-3.2595,0,0,0
-0.2922,0.0981,0.9731,-4.0458,-3.7328,-2.5496,0,0,0
-0.2754,0.0869,0.9731,-4.1069,-3.7328,-0.2977,0,0,0
-0.2827,0.0945,0.967,-2.3969,-2.0382,1.229,0,0,0
-0.3052,0.1052,0.9617,-0.9084,-0.2672,2.1069,0,0,0
-0.3276,0.1069,0.9685,-0.4046,0.2748,1.5802,0,0,0
-0.3362,0.1174,0.9795,-1.084,-0.3053,-0.2443,0,0,0
-0.3188,0.1111,0.9758,-1.855,-1.3893,-1.5496,0,0,0
-0.3013,0.0964,0.9949,-2.2672,-1.916,-1.2977,0,0,0
-0.2959,0.0933,0.979,-2.3664,-1.2901,-1.8473,0,0,0
-0.2964,0.0947,0.9778,-1.8321,-0.3511,-1.084,0,0,0
-0.3171,0.1069,0.9658,-1.7099,-0.8092,-0.5802,0,0,0
-0.3132,0.1035,0.9792,-1.6183,-0.7099,-1.3893,0,0,0
-0.3081,0.0952,0.9829,-1.7634,-0.3511,-1.5496,0,0,0
-0.2993,0.0964,0.9792,-2.145,0.6412,-0.5191,0,0,0
-0.3062,0.0952,0.979,-2.3435,0.0076,0.1756,0,0,0
-0.311,0.103,0.9812,-2.5496,-1.7176,0.2595,0,0,0
-0.2979,0.0962,0.9851,-2.7023,-2.0305,-0.5191,0,0,0
-0.2996,0.1079,0.967,-3.7557,-0.6412,0.2977,0,0,0
-0.3193,0.094,0.9658,-3.7557,-1.8473,-0.1832,0,0,0
-0.2859,0.0969,0.9668,-2.6794,-2.5725,-0.7634,0,0,0
-0.2896,0.1033,0.9678,-2.7481,0.0687,0.4504,0,0,0
-0.304,0.0938,0.9612,-1.8168,-0.0305,0.5878,0,0,0
-0.2961,0.0964,0.967,-0.7328,0.0992,0.5649,0,0,0
-0.311,0.1121,0.9751,-0.855,0.6489,1.2366,0,0,0
-0.312,0.1047,0.9795,-1.2595,-0.3282,-0.3664,0,0,0
-0.2925,0.1033,0.9805,-1.4962,0.0992,-0.1145,0,0,0
-0.312,0.1074,0.9785,-1.8779,0.2366,-0.3969,0,0,0
-0.321,0.1145,0.9695,-2.2748,-0.7634,-1.0534,0,0,0
-0.3035,0.1011,0.9819,-2.6412,-1.8473,-1.7634,0,0,0
-0.2861,0.1013,0.9841,-2.5802,-0.8702,-0.6412,0,0,0
-0.2913,0.0898,0.968,-2.5038,-0.1221,-0.3817,0,0,0
-0.2827,0.0962,0.9722,-1.4198,0.6336,0.3893,0,0,0
-0.2964,0.0911,0.9702,-0.8473,0.0611,0.3664,0,0,0
-0.2966,0.0957,0.978,-0.0305,1.916,0.9466,0,0,0
-0.344,0.1304,0.9666,-1.4351,1.0992,0.2977,0,0,0
-0.3337,0.1106,0.9814,-2.5038,-2.1756,-1.9237,0,0,0
-0.3103,0.1086,0.9883,-3.8015,-3.5115,-2.2137,0,0,0
-0.2932,0.0952,0.9817,-4.2824,-2.9466,-1.1145,0,0,0
-0.2793,0.0779,0.981,-2.8473,-0.8015,-1.1832,0,0,0
-0.291,0.0923,0.9626,-1.9847,0.2137,0.6183,0,0,0
-0.2969,0.0974,0.9775,-1.1069,0.1527,0.7099,0,0,0
-0.3013,0.1035,0.9763,-0.8015,1.4733,0.4656,0,0,0
-0.3237,0.1084,0.9641,-0.458,1.1985,-1.374,0,0,0
-0.3127,0.1067,0.9763,-0.7557,0.5344,-1.9389,0,0,0
-0.3035,0.1067,0.9761,-1.7481,-0.3206,-0.916,0,0,0
-0.3032,0.0959,0.9768,-2.458,-1.3282,1.3817,0,0,0
-0.312,0.1001,0.9788,-2.1374,-0.9847,-0.0763,0,0,0
-0.3098,0.1064,0.9734,-2.6794,-1.2901,-1.6489,0,0,0
-0.2974,0.0999,0.9783,-3.4122,-1.5573,-0.4351,0,0,0
-0.3062,0.1038,0.9685,-3.4504,-0.5878,-0.7863,0,0,0
-0.3193,0.1152,0.9502,-2.6718,-1.4046,-1.1679,0,0,0
-0.3096,0.0974,0.9619,-1.7557,-2.0992,-1.5344,0,0,0
-0.2939,0.094,0.9778,-1.229,-1.1832,-1.1832,0,0,0
-0.283,0.0955,0.9873,-1.4198,0.1069,-0.6336,0,0,0
-0.2864,0.0916,0.9895,-1.4046,0.0687,0.3359,0,0,0
-0.2961,0.0957,0.9875,-1.6031,-0.8244,-0.1985,0,0,0
-0.2893,0.0911,0.9917,-2.4809,-0.3511,0.7863,0,0,0
-0.3027,0.0984,0.9885,-3.0992,0.3359,1.626,0,0,0
-0.3433,0.1179,0.9614,-2.4198,0.1832,-0.4733,0,0,0
-0.334,0.1152,0.9717,-2.6412,-1.5649,-2.0153,0,0,0
-0.3174,0.1201,0.9658,-3.3664,-2.1985,-2.0153,0,0,0
-0.3057,0.1021,0.967,-2.7786,-1.9389,-2.4427,0,0,0
-0.2844,0.0933,0.9744,-2.2595,-1.5038,-2.2519,0,0,0
-0.2888,0.0923,0.9731,-2.2977,-0.8855,-0.8015,0,0,0
-0.2966,0.095,0.9705,-2.1756,-0.1756,0.3282,0,0,0
-0.2974,0.0913,0.9756,-1.4122,0.5954,0.2748,0,0,0
-0.2959,0.0945,0.9712,-0.4351,1.3053,-0.3511,0,0,0
-0.2925,0.095,0.9639,0.7939,2.1069,0.2443,0,0,0
-0.2961,0.0962,0.9758,1.2443,3.458,-0.2672,0,0,0
-0.3203,0.1118,0.9678,0.0229,1.687,0.8092,0,0,0
-0.3264,0.1052,0.9946,-1.0076,-1.5267,0.1756,0,0,0
-0.3223,0.1179,0.988,-3.0382,-2.3359,-1.5344,0,0,0
-0.3269,0.1125,0.9858,-4.1527,-2.4275,-3.1985,0,0,0
-0.3027,0.103,0.9795,-5.5878,-3.1221,-3.5344,0,0,0
-0.2908,0.083,0.9663,-5.8015,-4.4656,-1.8473,0,0,0
-0.2625,0.0708,0.9634,-3.7634,-3.3206,-1.0916,0,0,0
-0.2559,0.0718,0.9714,-1.4733,0.3664,1.0153,0,0,0
-0.2883,0.084,0.9556,0.4962,3.6794,2.2137,0,0,0
-0.3066,0.0908,0.9695,1.7557,3.229,2.0,0,0,0
-0.3301,0.1216,0.978,0.5878,1.7176,2.0076,0,0,0
-0.3462,0.1199,0.9795,-1.3893,-1.4656,-0.2214,0,0,0
-0.3247,0.1179,0.9888,-2.6183,-3.3435,-1.5344,0,0,0
-0.3071,0.0989,0.9866,-3.6794,-2.9542,-1.8702,0,0,0
-0.2808,0.0886,0.9871,-3.2443,-1.6641,-1.0611,0,0,0
-0.2773,0.085,0.9678,-1.458,0.5038,0.6489,0,0,0
-0.3208,0.1086,0.9573,-0.3435,3.2748,0.9389,0,0,0
-0.3589,0.1169,0.9661,-0.3893,-0.4351,-2.084,0,0,0
-0.3259,0.1072,0.9929,-2.5649,-5.1221,-3.1908,0,0,0
-0.2878,0.0862,0.9883,-3.8321,-4.855,-3.2443,0,0,0
-0.2715,0.0752,0.9941,-3.145,-1.8779,-1.5954,0,0,0
-0.2749,0.0803,0.9795,-2.7557,0.7099,-0.1221,0,0,0
-0.2874,0.082,0.9788,-1.8702,1.3206,0.916,0,0,0
-0.2856,0.092,0.9712,-1.2366,2.2137,1.9924,0,0,0
-0.3042,0.0996,0.9722,-0.4198,2.9237,1.8092,0,0,0
-0.3047,0.1013,0.9651,-0.6107,1.916,1.3817,0,0,0
-0.3191,0.1089,0.9675,-0.9847,0.3588,1.6107,0,0,0
-0.3215,0.1042,0.9761,-1.4809,-2.0458,0.5802,0,0,0
-0.3088,0.1091,0.979,-1.8473,-2.1756,-0.229,0,0,0
-0.3289,0.1133,0.9749,-2.4885,-2.145,-1.2137,0,0,0
-0.314,0.1021,0.9761,-2.9008,-3.0,-2.0534,0,0,0
-0.3015,0.1096,0.9856,-3.3206,-3.3053,-1.6183,0,0,0
-0.2952,0.1013,0.9805,-2.9542,-1.9466,-1.3511,0,0,0
-0.2922,0.0935,0.9766,-2.2672,-1.0534,-0.8321,0,0,0
-0.2952,0.0989,0.9702,-1.687,-0.855,-0.4198,0,0,0
-0.3054,0.106,0.9773,-1.0687,-1.1832,-0.5344,0,0,0
-0.2954,0.0923,0.9868,-1.1069,-0.2901,-0.9924,0,0,0
-0.3003,0.1062,0.9849,-1.9771,-0.1908,-0.542,0,0,0
-0.304,0.1003,0.9702,-2.5038,-0.3511,0.0534,0,0,0
-0.3074,0.0977,0.9683,-2.1908,-0.6412,0.0229,0,0,0
-0.3135,0.1013,0.9727,-1.9771,-0.2443,-0.2901,0,0,0
-0.3145,0.0977,0.9675,-1.7099,-1.3435,-1.2901,0,0,0
-0.2949,0.0981,0.9819,-1.8015,-1.9771,-1.9695,0,0,0
-0.2842,0.0969,0.9878,-1.9084,-1.4275,-1.374,0,0,0
-0.2786,0.0894,0.9807,-1.6031,0.0534,-0.2977,0,0,0
-0.2893,0.093,0.968,-0.6412,1.771,0.6947,0,0,0
-0.3232,0.1106,0.9692,-1.0076,1.7786,0.229,0,0,0
-0.3267,0.1089,0.9836,-2.2137,-1.2443,-1.1298,0,0,0
-0.3145,0.1121,0.9795,-3.5802,-3.2977,-1.6107,0,0,0
-0.2896,0.0933,0.9844,-3.7405,-2.4733,-1.2748,0,0,0
-0.301,0.0986,0.9646,-2.8015,-0.7023,-1.5954,0,0,0
-0.3083,0.0996,0.9653,-2.2901,-0.7405,-2.2137,0,0,0
-0.2981,0.093,0.9722,-1.8931,-2.2519,-2.4198,0,0,0
-0.2837,0.0886,0.9724,-1.6412,-1.229,-1.4122,0,0,0
-0.3005,0.0913,0.9714,-1.7176,-0.5954,-0.3511,0,0,0
-0.3086,0.0938,0.9761,-0.7863,-0.9542,-1.1756,0,0,0
-0.3052,0.1038,0.9922,-2.0992,-2.2595,-1.5191,0,0,0
-0.2974,0.0952,1.0017,-3.9237,-2.1145,-1.2595,0,0,0
-0.2883,0.093,0.981,-3.8244,-2.145,-1.626,0,0,0
-0.2871,0.0862,0.9658,-3.2214,-0.7328,-0.3435,0,0,0
-0.3157,0.0999,0.947,-3.5038,-2.6336,0.6107,0,0,0
-0.3149,0.0906,0.9534,-2.0916,-4.3206,-0.4733,0,0,0
-0.3062,0.0898,0.9612,-1.1298,-2.7252,-1.9313,0,0,0
-0.2942,0.0977,0.9805,-0.8626,-1.4122,-2.1832,0,0,0
-0.3062,0.0984,0.9893,-1.4427,-2.6641,-2.7786,0,0,0
-0.281,0.0886,1.001,-2.0458,-3.458,-2.3893,0,0,0
-0.2754,0.0898,1.0059,-2.6489,-2.0305,-0.7939,0,0,0
-0.2822,0.0901,0.9917,-3.0305,-0.8702,0.3511,0,0,0
-0.303,0.0911,0.988,-2.2824,-0.2977,0.3053,0,0,0
-0.3118,0.1033,0.978,-2.4275,-1.4122,-0.3664,0,0,0
-0.2942,0.0974,0.9824,-2.8168,-1.8015,-0.7023,0,0,0
-0.2896,0.093,0.9824,-2.4885,0.0,-0.542,0,0,0
-0.2954,0.0979,0.9797,-1.6183,1.7252,-0.1603,0,0,0
-0.314,0.1021,0.9812,-1.5191,1.9084,-0.8321,0,0,0
-0.314,0.1123,0.9822,-2.855,0.1374,-1.3206,0,0,0
-0.3035,0.1003,0.9712,-3.9924,-1.8397,-1.1527,0,0,0
-0.2996,0.0942,0.9734,-4.0992,-2.3817,-1.2748,0,0,0
-0.2822,0.0825,0.9651,-3.1832,-1.0,-1.1908,0,0,0
-0.2976,0.0872,0.9575,-1.7405,-0.2901,-0.7863,0,0,0
-0.2854,0.0845,0.9785,-0.8092,0.4427,-0.7023,0,0,0
-0.2925,0.1028,0.9866,-2.6641,-0.687,-0.4275,0,0,0
-0.2937,0.0903,0.9758,-3.229,-0.4198,-0.8244,0,0,0
-0.2917,0.0835,0.9763,-1.7786,-0.542,-1.5038,0,0,0
-0.2961,0.0991,0.9819,-1.7099,-0.9008,-0.6718,0,0,0
-0.2986,0.092,0.9924,-2.9313,-1.1145,-0.4198,0,0,0
-0.2942,0.0867,0.9868,-2.916,-1.2366,-0.7557,0,0,0
-0.2915,0.0938,0.9797,-3.1374,-0.6107,-0.2519,0,0,0
-0.2983,0.0879,0.9707,-3.5267,-0.6031,0.145,0,0,0
-0.2922,0.0891,0.9612,-2.9542,-1.5878,0.2061,0,0,0
-0.2834,0.082,0.97,-1.8015,-0.4122,0.5878,0,0,0
-0.2981,0.0933,0.9685,-0.9924,1.4504,0.5344,0,0,0
-0.3027,0.0986,0.9727,-1.2366,1.1603,0.4275,0,0,0
-0.2935,0.0918,0.9836,-1.5191,0.229,0.145,0,0,0
-0.3008,0.0911,0.9861,-2.1908,0.458,0.3053,0,0,0
-0.3049,0.1045,0.9746,-2.3359,0.1374,-0.0153,0,0,0
-0.3086,0.0964,0.9727,-2.5267,-1.4427,0.0229,0,0,0
-0.3052,0.0862,0.9771,-2.2901,-1.3893,-0.9847,0,0,0
-0.3037,0.0955,0.9844,-1.5115,-0.6031,-1.2061,0,0,0
-0.3081,0.0957,0.9861,-1.8473,0.1298,-1.2443,0,0,0
-0.3079,0.0935,0.9895,-2.3817,0.2061,-1.6489,0,0,0
-0.2993,0.0898,0.9912,-2.9237,-0.6031,-1.5878,0,0,0
-0.3074,0.0989,0.9709,-3.6794,-1.4275,-1.6565,0,0,0
-0.2932,0.0811,0.9805,-4.1679,-2.1603,-1.7023,0,0,0
-0.2791,0.0808,0.9792,-3.8473,-1.3053,-1.4885,0,0,0
-0.2751,0.074,0.9646,-2.6336,-0.4046,-0.4198,0,0,0
-0.2871,0.0842,0.9722,-1.7252,0.374,-0.0305,0,0,0
-0.2966,0.0872,0.9814,-1.5496,0.1679,-0.4733,0,0,0
-0.302,0.0916,0.9797,-2.145,0.084,-0.5038,0,0,0
-0.2993,0.0942,0.9758,-2.313,0.0305,-0.6794,0,0,0
-0.2969,0.0903,0.9771,-2.1603,0.1832,-0.0534,0,0,0
-0.2944,0.0952,0.9722,-2.1985,-0.3664,0.9389,0,0,0
-0.2971,0.0938,0.98,-2.2748,-0.4198,0.2366,0,0,0
-0.3013,0.0945,0.9836,-1.9771,0.313,-0.2519,0,0,0
-0.3108,0.1008,0.9756,-1.9924,0.4809,-0.5954,0,0,0
-0.3081,0.1003,0.9683,-2.7634,-0.4122,-1.626,0,0,0
-0.3057,0.0913,0.9744,-2.6565,-1.0611,-2.229,0,0,0
-0.2827,0.0815,0.9727,-2.145,-0.9008,-2.084,0,0,0
-0.28,0.0789,0.9768,-1.542,-0.4809,-0.6336,0,0,0
-0.2813,0.0808,0.9766,-0.6107,-0.0534,0.3053,0,0,0
-0.2971,0.0928,0.9766,-0.7328,0.4962,0.3053,0,0,0
-0.3284,0.1077,0.9819,-1.626,-1.0458,-0.5496,0,0,0
-0.3096,0.0879,0.9924,-3.0992,-2.6031,-2.0458,0,0,0
-0.2883,0.0879,0.9868,-3.8397,-1.8168,-1.9008,0,0,0
-0.2778,0.0811,0.9736,-3.0,0.1221,-1.2672,0,0,0
-0.2891,0.0908,0.9578,-1.9466,0.5496,-0.6183,0,0,0
-0.281,0.0769,0.9658,-0.6947,0.1832,0.145,0,0,0
-0.2979,0.0854,0.9771,0.1527,1.3817,0.4733,0,0,0
-0.3235,0.0974,0.9827,-0.3359,0.4275,-0.0687,0,0,0
-0.3091,0.0947,0.9912,-1.7481,-0.9695,-1.374,0,0,0
-0.3037,0.0957,0.988,-2.687,-1.5267,-1.0916,0,0,0
-0.2922,0.0825,0.9907,-2.9847,-1.0,-1.3664,0,0,0
-0.29,0.0869,0.9783,-2.7786,0.1298,-1.6107,0,0,0
-0.2876,0.082,0.9761,-2.687,0.2214,-0.6336,0,0,0
-0.2888,0.0823,0.9736,-1.9542,-0.5649,0.8168,0,0,0
-0.2908,0.0828,0.981,-1.313,-0.0382,1.0763,0,0,0
-0.3022,0.0898,0.9707,-1.3359,0.1985,0.1527,0,0,0
-0.304,0.094,0.9812,-1.4198,0.5038,-0.2595,0,0,0
-0.3154,0.0972,0.9739,-2.0534,-0.6031,-0.9924,0,0,0
-0.3018,0.0845,0.9812,-3.0534,-1.7405,-1.5649,0,0,0
-0.2729,0.0818,0.9761,-2.771,-0.6412,-1.1679,0,0,0
-0.2815,0.0872,0.9702,-2.1985,0.3817,1.1069,0,0,0
-0.2949,0.0916,0.9756,-1.3282,0.4504,1.6107,0,0,0
-0.3098,0.0967,0.9783,-1.0992,0.3435,1.4809,0,0,0
-0.3096,0.0986,0.9744,-0.771,0.0153,0.9466,0,0,0
-0.3198,0.1147,0.9683,-2.1679,1.3511,0.9695,0,0,0
-0.3567,0.1067,0.9653,-2.4351,-1.6718,-2.7939,0,0,0
-0.3169,0.0986,0.9885,-3.1832,-4.3206,-5.084,0,0,0
-0.2737,0.0786,0.9971,-4.0458,-2.8321,-4.0076,0,0,0
-0.2676,0.0757,0.988,-3.2519,-0.9618,-2.7863,0,0,0
-0.2637,0.0586,0.9854,-2.0076,-0.3206,-0.4809,0,0,0
-0.2664,0.0725,0.9924,-1.9466,-0.1145,1.3893,0,0,0
-0.2922,0.0847,0.9858,-1.5115,1.8855,2.7405,0,0,0
-0.3325,0.0906,0.9805,-0.7405,2.0382,0.5344,0,0,0
-0.3242,0.1035,0.99,-1.9084,0.0763,-1.0229,0,0,0
-0.311,0.0959,0.99,-3.7481,-1.4046,-1.3893,0,0,0
-0.2979,0.093,0.9734,-4.4656,-2.0534,-1.4122,0,0,0
-0.291,0.0811,0.9719,-3.0611,-1.3282,-1.0,0,0,0
-0.2776,0.0818,0.9717,-2.3893,0.2748,-0.1069,0,0,0
-0.2957,0.0876,0.9658,-1.8092,1.5115,0.9924,0,0,0
-0.3042,0.0906,0.9634,-0.5115,1.8168,1.0687,0,0,0
-0.3115,0.0889,0.9709,-0.687,0.229,-0.4885,0,0,0
-0.3152,0.1006,0.9844,-1.6947,-1.3817,-1.1985,0,0,0
-0.3027,0.092,0.9873,-3.2901,-1.8397,-1.9008,0,0,0
-0.2942,0.0823,0.9871,-3.7481,-1.145,-1.8702,0,0,0
-0.2927,0.0796,0.9768,-3.3282,-0.7176,-1.2748,0,0,0
-0.2871,0.0725,0.9729,-2.2977,-0.084,-1.0153,0,0,0
-0.2778,0.074,0.9773,-0.6947,0.8168,0.0458,0,0,0
-0.2913,0.0825,0.9792,-0.3359,1.6107,0.9847,0,0,0
-0.2971,0.0864,0.9905,0.0763,1.9237,0.8015,0,0,0
-0.3088,0.092,0.9822,-0.8779,1.4351,0.6794,0,0,0
-0.3142,0.1001,0.9878,-1.9695,0.374,0.5038,0,0,0
-0.3279,0.0959,0.9763,-3.3893,-1.7176,-0.3359,0,0,0
-0.3191,0.0908,0.9709,-3.4046,-2.9847,-2.687,0,0,0
-0.2944,0.0869,0.9719,-3.3435,-2.2214,-2.9695,0,0,0
-0.2754,0.0757,0.9719,-2.5267,-1.0305,-1.9313,0,0,0
-0.2803,0.0774,0.9717,-1.7786,-0.6183,-0.2748,0,0,0
-0.2878,0.0776,0.9775,-0.771,-0.3282,0.458,0,0,0
-0.2993,0.0918,0.9797,-1.374,-0.4275,0.9008,0,0,0
-0.3152,0.0864,0.9814,-1.458,0.8321,0.6412,0,0,0
-0.3276,0.1035,0.9797,-2.084,0.855,-0.5802,0,0,0
-0.3291,0.093,0.9729,-2.313,-0.8244,-1.8702,0,0,0
-0.3108,0.0896,0.9873,-2.7176,-2.8168,-2.5496,0,0,0
-0.292,0.0781,0.9946,-2.5038,-2.1908,-2.7481,0,0,0
-0.2896,0.0806,0.9866,-3.1679,-0.9542,-2.0687,0,0,0
-0.2813,0.0698,0.9827,-2.9084,-1.3206,-1.5573,0,0,0
-0.2769,0.0691,0.981,-2.3817,-0.5344,-0.4809,0,0,0
-0.2822,0.0654,0.9722,-2.1908,0.0611,0.7634,0,0,0
-0.2949,0.0803,0.9658,-0.9466,1.4046,0.6412,0,0,0
-0.3054,0.0803,0.97,0.2061,1.1832,0.2977,0,0,0
-0.3042,0.093,0.9836,-0.4122,0.374,0.5802,0,0,0
-0.3184,0.0991,0.9829,-2.0382,-0.0992,-0.2443,0,0,0
-0.3162,0.0994,0.9788,-2.9466,-1.5573,-0.3511,0,0,0
-0.2942,0.0898,0.9834,-3.2443,-1.4275,-0.2519,0,0,0
-0.2834,0.083,0.9687,-3.0534,0.2214,-0.084,0,0,0
-0.2874,0.0698,0.9663,-0.7176,0.9847,0.6107,0,0,0
-0.2876,0.0818,0.9797,0.1603,2.5496,1.5267,0,0,0
-0.2876,0.0771,0.9829,0.542,3.1985,2.1145,0,0,0
-0.291,0.0854,0.9802,0.4962,3.6107,2.8321,0,0,0
-0.3096,0.0923,0.9792,-0.084,3.1832,1.8626,0,0,0
-0.3174,0.0969,0.9817,-0.9237,1.3435,1.771,0,0,0
-0.3237,0.1042,0.9736,-2.084,-0.916,0.1908,0,0,0
-0.3267,0.1021,0.9663,-3.0,-2.9237,-1.5038,0,0,0
-0.3103,0.0847,0.9822,-2.6947,-3.4733,-2.5496,0,0,0
-0.2949,0.0864,0.9817,-2.9313,-1.7099,-1.8855,0,0,0
-0.2869,0.0847,0.9753,-2.5115,-1.1908,-1.8168,0,0,0
-0.2942,0.0913,0.9702,-1.9542,-0.7863,-0.6107,0,0,0
-0.2988,0.0815,0.9885,-1.9084,-1.0,-0.0992,0,0,0
-0.3,0.0913,0.978,-2.1832,-0.687,0.0534,0,0,0
-0.3032,0.082,0.9717,-1.5573,-0.1069,-0.2595,0,0,0
-0.2981,0.0771,0.9687,-0.4885,0.6947,-0.084,0,0,0
-0.3071,0.0884,0.9707,-0.458,1.3435,0.1832,0,0,0
-0.3179,0.0879,0.9739,-0.5649,-0.2748,-0.4962,0,0,0
-0.3086,0.0908,0.9893,-1.4962,-1.8855,-0.8244,0,0,0
-0.2981,0.0881,0.9956,-2.855,-1.6718,-1.2519,0,0,0
-0.2883,0.0845,0.9922,-3.4962,-0.2595,-0.7786,0,0,0
-0.3042,0.0835,0.9724,-3.4962,-0.2977,-0.6183,0,0,0
-0.2969,0.0803,0.9648,-2.916,-1.2748,0.084,0,0,0
-0.2993,0.0835,0.9641,-2.0611,0.2061,0.0229,0,0,0
-0.2964,0.0867,0.9653,-0.9771,0.4962,-0.0229,0,0,0
-0.3071,0.0879,0.9736,-0.5802,0.2214,0.1756,0,0,0
-0.302,0.0881,0.9846,-1.0611,-0.4427,-0.1603,0,0,0
-0.3022,0.0923,0.9812,-1.7099,-0.2214,-0.3282,0,0,0
-0.3198,0.0964,0.9836,-2.6336,-1.3893,-0.374,0,0,0
-0.3091,0.0974,0.9819,-3.2901,-2.6336,-1.4046,0,0,0
-0.3025,0.0969,0.9714,-4.3359,-2.6641,-1.687,0,0,0
-0.2715,0.0735,0.9761,-3.3588,-1.5115,-1.7252,0,0,0
-0.2776,0.0818,0.9783,-2.1603,0.0611,0.1603,0,0,0
-0.2991,0.0889,0.9675,-1.3282,0.0382,1.6794,0,0,0
-0.3132,0.092,0.9751,-1.5573,0.8473,0.4351,0,0,0
-0.3257,0.1033,0.9724,-2.0,0.1221,-1.0916,0,0,0
-0.3213,0.092,0.978,-3.6412,-2.4046,-2.0763,0,0,0
-0.3088,0.0938,0.9683,-3.9084,-2.4809,-2.3206,0,0,0
-0.2935,0.0764,0.9578,-2.7939,-1.8015,-3.1908,0,0,0
-0.2776,0.0762,0.9727,-0.9847,-1.0534,-2.5496,0,0,0
-0.2808,0.0801,0.9729,-0.4809,-0.4427,-0.4885,0,0,0
-0.2888,0.0732,0.9871,0.1069,0.1679,0.687,0,0,0
-0.2971,0.0815,0.9893,0.2595,0.626,0.7099,0,0,0
-0.3171,0.0933,1.0007,-0.687,1.4351,0.7481,0,0,0
-0.322,0.0972,0.9978,-2.916,-0.145,-0.1679,0,0,0
-0.3198,0.0908,0.9912,-4.5802,-1.3206,-1.1603,0,0,0
-0.303,0.0854,0.9773,-4.6565,-1.5496,-1.0229,0,0,0
-0.2979,0.0874,0.9561,-3.9313,-1.313,-1.0534,0,0,0
-0.2903,0.0701,0.9695,-2.3817,-0.8702,-0.2595,0,0,0
-0.3032,0.0886,0.9673,-1.084,0.0458,0.7557,0,0,0
-0.312,0.0854,0.9775,-1.0,-0.4427,0.2748,0,0,0
-0.3003,0.0972,0.9824,-2.3053,-0.9771,-0.3969,0,0,0
-0.2937,0.0764,0.9814,-2.916,-2.1374,0.0382,0,0,0
-0.2903,0.0803,0.9827,-2.7786,-0.7863,-0.4656,0,0,0
-0.3101,0.0625,0.9673,-2.1374,-0.4656,-1.0687,0,0,0
-0.2837,0.0903,0.9602,-1.6641,0.8855,-1.4046,0,0,0
-0.2998,0.0823,0.9695,-0.8626,0.8321,-0.229,0,0,0
-0.3,0.085,0.9609,-0.3359,1.229,-0.9313,0,0,0
-0.2952,0.0803,0.9705,0.9847,2.0458,-0.5496,0,0,0
-0.3069,0.0991,0.9807,0.8702,1.0687,0.4046,0,0,0
-0.312,0.0923,0.9817,-0.0687,-0.4198,-0.0305,0,0,0
-0.3088,0.0881,0.989,-1.6336,-1.5573,-0.3206,0,0,0
-0.3105,0.0925,0.9968,-2.7252,-2.2137,-1.5802,0,0,0
-0.3015,0.0886,0.9888,-3.9695,-2.5115,-1.9847,0,0,0
-0.3008,0.0891,0.9753,-4.7099,-3.2366,-1.7099,0,0,0
-0.2881,0.0803,0.9736,-3.7328,-2.6183,-2.2672,0,0,0
-0.2864,0.0764,0.9707,-2.7023,-1.4198,-1.458,0,0,0
-0.282,0.0728,0.9724,-1.6565,0.1221,-0.7405,0,0,0
-0.3025,0.0803,0.9612,-0.9924,0.1603,-0.1069,0,0,0
-0.2979,0.0798,0.969,-0.6336,-0.8855,-0.1603,0,0,0
-0.3157,0.093,0.9824,-1.0916,-1.3359,-0.5191,0,0,0
-0.2976,0.0815,0.9817,-1.6947,-1.9542,-0.9084,0,0,0
-0.3215,0.0945,0.978,-2.1985,-1.5802,-1.6183,0,0,0
-0.3083,0.0815,0.9834,-2.5191,-2.8702,-2.5954,0,0,0
-0.2988,0.0789,0.9888,-3.0229,-3.0534,-2.4275,0,0,0
-0.2842,0.0735,0.9875,-2.6947,-2.6641,-2.5344,0,0,0
-0.2671,0.063,0.9763,-1.7634,-0.5191,-1.374,0,0,0
-0.2729,0.0745,0.9792,-0.8473,1.7252,0.7863,0,0,0
-0.2993,0.0835,0.9792,-0.1832,1.8702,1.4046,0,0,0
-0.3125,0.0925,0.9829,-1.229,0.2443,1.3206,0,0,0
-0.3196,0.0903,0.9907,-2.4198,0.1908,0.4962,0,0,0
-0.3308,0.0881,0.98,-3.3435,-0.7481,-1.8702,0,0,0
-0.3003,0.0811,0.9797,-3.4427,-1.9084,-3.0687,0,0,0
-0.2788,0.0811,0.9697,-3.5267,-1.313,-2.6336,0,0,0
-0.2698,0.0681,0.9741,-1.6107,-0.9466,-0.5344,0,0,0
-0.2864,0.0859,0.9741,-1.3588,0.542,0.8702,0,0,0
-0.3,0.0793,0.9758,-0.7252,0.6336,0.7786,0,0,0
-0.3052,0.0867,0.968,-0.458,0.7405,0.9237,0,0,0
-0.3337,0.0991,0.9771,-0.7405,-0.6412,-0.3359,0,0,0
-0.3103,0.095,0.9912,-1.4809,-2.0153,-1.9084,0,0,0
-0.2922,0.0869,0.9968,-2.6718,-1.4275,-1.5954,0,0,0
-0.2949,0.0872,0.9941,-3.1985,-1.1908,-1.4885,0,0,0
-0.2964,0.084,0.9932,-3.0,-0.9618,-1.6641,0,0,0
-0.3018,0.0835,0.9829,-3.3206,-1.6183,-1.5802,0,0,0
-0.2832,0.0752,0.9775,-3.2672,-1.3435,-0.9389,0,0,0
-0.2883,0.0767,0.9695,-2.4427,0.3053,-0.5802,0,0,0
-0.2952,0.064,0.9641,-0.5802,1.1908,-1.2595,0,0,0
-0.2832,0.0728,0.9746,-0.0382,1.2672,-0.7634,0,0,0
-0.2776,0.0693,0.9849,0.2824,2.1221,0.3969,0,0,0
-0.2898,0.0764,0.9836,0.0153,2.9084,1.1069,0,0,0
-0.3042,0.0857,0.9775,0.1603,2.3664,1.458,0,0,0
-0.311,0.0891,0.9768,-0.374,1.6718,1.0305,0,0,0
-0.3142,0.0925,0.98,-1.0153,1.5115,0.6412,0,0,0
-0.314,0.0911,0.9741,-0.9618,1.1298,-0.1603,0,0,0
-0.3057,0.085,0.9741,-0.2214,0.8397,-1.2519,0,0,0
-0.3083,0.0913,0.9751,-0.9618,0.3359,-1.2748,0,0,0
-0.3069,0.0859,0.9854,-1.4885,-1.1603,-1.5191,0,0,0
-0.2976,0.0813,0.9939,-2.0229,-1.6794,-1.2214,0,0,0
-0.2947,0.0847,0.9846,-2.6565,-0.8015,-0.7557,0,0,0
-0.2937,0.075,0.9822,-2.2519,-0.1756,-0.2443,0,0,0
-0.282,0.0728,0.9768,-1.1832,1.1679,0.2366,0,0,0
-0.2864,0.0789,0.9788,0.2519,3.0229,0.9618,0,0,0
-0.3069,0.0896,0.9783,0.7786,3.0458,1.145,0,0,0
-0.3325,0.0977,0.9768,-0.0687,1.9618,-0.4885,0,0,0
-0.3276,0.1052,0.9771,-1.8168,-1.084,-1.5115,0,0,0
-0.3108,0.0818,0.9795,-3.374,-2.8015,-2.2519,0,0,0
-0.2891,0.0828,0.9829,-4.1832,-2.3893,-1.7405,0,0,0
-0.2803,0.0681,0.9753,-2.916,-0.916,-0.7939,0,0,0
-0.2915,0.0813,0.9687,-2.1374,-0.1374,-0.1374,0,0,0
-0.2966,0.0837,0.9678,-1.4122,0.2672,0.2595,0,0,0
-0.3101,0.0913,0.9692,-0.9542,0.0382,-0.1374,0,0,0
-0.3113,0.0916,0.9678,-1.0916,0.0687,0.0382,0,0,0
-0.3274,0.1038,0.9561,-2.2214,-0.2061,-1.4733,0,0,0
-0.3342,0.0903,0.9661,-1.9542,-2.2901,-3.8168,0,0,0
-0.3013,0.0928,0.9907,-1.6489,-2.8015,-3.8397,0,0,0
-0.2837,0.0784,0.9983,-2.5038,-1.3435,-2.687,0,0,0
-0.2817,0.0818,0.9861,-2.6336,-0.6183,-1.6107,0,0,0
-0.2935,0.0864,0.9792,-2.3053,-1.3588,-0.5649,0,0,0
-0.3025,0.0845,0.9885,-2.0458,-1.0916,-2.1832,0,0,0
-0.3025,0.0945,0.9873,-2.626,-0.7786,-2.3206,0,0,0
-0.2983,0.0859,0.9695,-3.3282,-1.1221,-1.855,0,0,0
-0.2976,0.0862,0.9534,-2.2214,-1.8626,-1.5267,0,0,0
-0.29,0.0769,0.9573,-1.2672,-0.9695,-1.0534,0,0,0
-0.3086,0.0803,0.9702,-0.1298,-0.8015,-3.0458,0,0,0
-0.291,0.0764,0.9839,-1.3588,-1.2748,-1.7099,0,0,0
-0.2896,0.0847,0.9844,-2.5878,-0.9389,-0.4198,0,0,0
-0.3066,0.0828,0.9644,-2.8626,-1.1221,-0.6412,0,0,0
-0.3113,0.0847,0.9658,-1.9313,-2.3359,-1.4198,0,0,0
-0.3076,0.0898,0.9734,-1.5496,-1.6794,-0.7099,0,0,0
-0.3118,0.0774,0.98,-1.145,-1.1069,-1.542,0,0,0
-0.3083,0.0847,0.9832,-0.1069,-0.9237,-2.687,0,0,0
-0.2854,0.0728,0.9949,-0.0534,-1.2824,-2.0534,0,0,0
-0.2671,0.0706,1.0061,-0.9924,0.4504,-0.542,0,0,0
-0.2905,0.0825,0.9873,-1.1298,1.7786,0.6794,0,0,0
-0.3103,0.0916,0.9783,-1.5725,1.1145,1.1298,0,0,0
-0.3323,0.0989,0.9797,-2.5573,0.1527,-0.0382,0,0,0
-0.3318,0.1006,0.969,-4.1221,-1.9084,-1.0534,0,0,0
-0.3132,0.0833,0.9644,-3.8473,-3.0458,-3.0382,0,0,0
-0.2854,0.0764,0.9543,-2.4504,-2.4885,-3.626,0,0,0
-0.2739,0.0693,0.9617,-0.5191,-2.2366,-3.3053,0,0,0
-0.2632,0.0649,0.9844,0.145,-1.0458,-1.1374,0,0,0
-0.2859,0.0808,0.9963,0.5115,0.4122,0.5725,0,0,0
-0.313,0.0874,0.9949,-0.229,1.6641,0.9771,0,0,0
-0.332,0.1038,0.9934,-1.7252,0.7328,0.2595,0,0,0
-0.3223,0.0916,0.99,-2.626,-1.1374,-1.1145,0,0,0
-0.2966,0.0798,0.9873,-2.7328,-0.7328,-1.5649,0,0,0
-0.2998,0.084,0.9683,-2.3969,0.3206,-0.8473,0,0,0
-0.313,0.0784,0.9692,-1.2672,-0.1069,-0.8244,0,0,0
-0.3167,0.0862,0.9827,-0.2366,-0.145,-1.7634,0,0,0
-0.312,0.0889,0.9902,-1.0458,0.3511,-2.8244,0,0,0
-0.3103,0.0859,0.9873,-2.2519,-0.3588,-2.4733,0,0,0
-0.3079,0.0784,0.9961,-2.5878,-1.3969,-2.7099,0,0,0
-0.2847,0.0732,0.9988,-3.3053,-0.9237,-2.0916,0,0,0
-0.2878,0.0754,0.9858,-4.374,0.1679,-0.7557,0,0,0
-0.2988,0.0701,0.978,-3.7786,0.7786,-0.7328,0,0,0
-0.2986,0.0747,0.9648,-2.458,0.916,-1.1603,0,0,0
-0.3013,0.0857,0.9653,-2.229,1.2443,-1.7328,0,0,0
-0.3149,0.0852,0.9668,-2.0,0.9924,-1.9313,0,0,0
-0.3093,0.0862,0.9902,-2.7481,-0.6794,-2.1832,0,0,0
-0.3047,0.0884,0.9941,-4.0305,-0.7252,-2.687,0,0,0
-0.2944,0.0852,0.9841,-4.5573,-0.5878,-2.4046,0,0,0
-0.2874,0.0811,0.9729,-4.145,1.0076,-1.9008,0,0,0
-0.3015,0.0869,0.9687,-3.2061,1.458,-2.1069,0,0,0
-0.3091,0.0833,0.981,-2.6183,1.6794,-2.8321,0,0,0
-0.3088,0.0911,0.9792,-4.0916,1.3359,-3.1298,0,0,0
-0.3049,0.075,0.9653,-5.1756,0.458,-3.3664,0,0,0
-0.303,0.0698,0.9546,-4.8321,-1.1145,-3.7176,0,0,0
-0.2898,0.0649,0.9619,-3.7099,-2.3588,-3.6718,0,0,0
-0.2708,0.0591,0.9663,-3.1221,-0.8626,-2.5649,0,0,0
-0.2791,0.0583,0.9797,-2.0382,0.6336,-1.0229,0,0,0
-0.3103,0.0776,0.9915,-2.2672,-0.0992,-0.3969,0,0,0
-0.2981,0.0754,0.9775,-4.4504,-1.1908,-0.5496,0,0,0
-0.3008,0.0659,0.9675,-3.3511,-0.9237,-0.5344,0,0,0
-0.3035,0.0684,0.9834,-1.8855,-0.7099,-0.3969,0,0,0
-0.3035,0.0833,0.9895,-2.7557,0.6641,-0.3206,0,0,0
-0.3164,0.0737,0.9771,-2.8779,0.2672,-0.4809,0,0,0
-0.3125,0.0764,0.9795,-2.3435,-0.2443,-0.9008,0,0,0
-0.3044,0.0762,0.9873,-2.9313,-0.0382,-0.6718,0,0,0
-0.3052,0.0745,0.9785,-3.0229,0.1374,-0.1985,0,0,0
-0.3083,0.0715,0.9807,-2.084,0.7252,-0.5344,0,0,0
-0.3093,0.0857,0.9697,-2.458,1.0153,-0.2672,0,0,0
-0.3398,0.0786,0.9739,-2.9237,-0.8321,-1.0076,0,0,0
-0.325,0.0781,0.9863,-3.5496,-2.5344,-2.626,0,0,0
-0.3035,0.0691,0.9895,-4.4275,-1.7099,-2.6336,0,0,0
-0.2971,0.0562,0.9846,-4.2443,-1.3206,-2.7099,0,0,0
-0.2922,0.0571,0.9731,-3.3588,-0.6718,-2.6336,0,0,0
-0.2786,0.0532,0.9773,-2.5725,0.6565,-1.9618,0,0,0
-0.2847,0.0542,0.9856,-2.2595,1.0992,-0.6794,0,0,0
-0.2947,0.0576,0.9861,-2.0153,0.4656,0.6336,0,0,0
-0.303,0.0662,0.9849,-2.7176,0.5344,0.374,0,0,0
-0.3091,0.0659,0.9832,-3.0458,0.3893,0.2519,0,0,0
-0.3174,0.0784,0.9734,-3.8321,0.0305,0.542,0,0,0
-0.3269,0.0708,0.9629,-4.0687,-1.4122,-0.9084,0,0,0
-0.3093,0.0725,0.967,-3.855,-2.2748,-1.855,0,0,0
-0.2996,0.0657,0.9705,-3.542,-2.1298,-1.5191,0,0,0
-0.2961,0.0691,0.9797,-2.8702,-0.8244,-1.1527,0,0,0
-0.2983,0.0667,0.98,-2.1374,0.1756,-1.0916,0,0,0
-0.302,0.0747,0.9834,-1.9389,0.6794,-0.2214,0,0,0
-0.3103,0.0737,0.98,-2.3435,0.4656,-0.4351,0,0,0
-0.304,0.074,0.98,-2.0763,0.1221,-0.9237,0,0,0
-0.304,0.0723,0.969,-2.0763,-0.229,-0.855,0,0,0
-0.3037,0.0674,0.9785,-1.5191,-0.8397,-1.2748,0,0,0
-0.2871,0.0667,0.9885,-1.8168,0.1679,-0.4046,0,0,0
-0.3081,0.0762,0.9771,-2.6947,-0.5573,0.2748,0,0,0
-0.3037,0.0693,0.9731,-2.4427,-1.0763,0.0458,0,0,0
-0.3069,0.0752,0.9683,-2.5115,-0.313,-0.5725,0,0,0
-0.3054,0.0864,0.9705,-2.7252,0.2824,-0.6565,0,0,0
-0.3042,0.0737,0.9749,-2.2443,-1.8397,-1.1679,0,0,0
-0.2905,0.0649,0.9707,-2.2519,-1.3893,-0.5191,0,0,0
-0.2905,0.061,0.9668,-1.3206,-0.771,0.2061,0,0,0
-0.3069,0.0674,0.9663,-0.5802,-0.6794,-0.2214,0,0,0
-0.313,0.0718,0.9687,-0.9084,-1.5496,-0.6031,0,0,0
-0.3105,0.0703,0.978,-1.4198,-2.229,-0.7405,0,0,0
-0.3062,0.0686,0.9856,-1.7328,-1.9084,-0.7481,0,0,0
-0.2927,0.0627,0.989,-1.8168,-1.8473,-0.5267,0,0,0
-0.2893,0.062,0.9824,-1.8779,-0.2748,-0.0534,0,0,0
-0.2942,0.0627,0.9934,-1.5038,0.6412,-0.0687,0,0,0
-0.3142,0.0713,0.9839,-1.6565,1.0916,0.0687,0,0,0
-0.3279,0.075,0.9761,-2.5725,-0.7252,-0.8931,0,0,0
-0.3154,0.0767,0.9753,-3.1527,-2.5649,-1.6489,0,0,0
-0.3013,0.0688,0.9683,-2.9237,-2.6336,-2.0382,0,0,0
-0.2959,0.0596,0.9734,-1.9771,-1.8092,-1.084,0,0,0
-0.2878,0.0605,0.9763,-1.0992,0.0076,-0.458,0,0,0
-0.3005,0.0652,0.9731,-0.542,0.2443,0.2901,0,0,0
-0.3164,0.0764,0.9827,-0.9389,0.4275,0.7328,0,0,0
-0.3206,0.0732,0.9856,-1.6031,-0.4885,-0.1298,0,0,0
-0.3015,0.0757,0.9937,-2.7557,0.0534,-1.1298,0,0,0
-0.2896,0.0618,0.9695,-2.687,1.1908,-1.2366,0,0,0
-0.3003,0.0603,0.967,-1.3969,0.4275,0.1298,0,0,0
-0.3101,0.0686,0.9739,-0.4275,-0.2901,0.1603,0,0,0
-0.3074,0.0688,0.9814,-0.6336,-0.3664,-0.4351,0,0,0
-0.3179,0.0679,0.9851,-1.0534,-0.0992,-0.6336,0,0,0
-0.3142,0.0754,0.9839,-2.4275,-1.5344,-0.9847,0,1,0
-0.2903,0.0623,0.9905,-3.1221,-2.458,-1.2901,0,1,0
-0.2837,0.0522,0.9751,-3.1298,-1.7786,-0.4504,0,1,0
-0.2832,0.0544,0.9753,-2.542,-0.1985,0.8397,0,1,0
-0.2959,0.0664,0.9636,-2.1298,0.8015,1.3435,0,1,0
-0.3066,0.062,0.9661,-1.4962,0.3664,1.6336,0,1,0
-0.3064,0.0708,0.9683,-0.9237,0.3817,1.1756,0,1,0
-0.3154,0.0691,0.98,-0.9084,0.1527,0.2214,0,1,0
-0.3076,0.0796,0.9883,-1.4351,-0.1221,-0.145,0,1,0
-0.3076,0.0796,0.9897,-2.2061,-0.3511,-0.2672,0,1,0
-0.3069,0.0793,0.9851,-2.6183,-0.4885,-0.5344,0,1,0
-0.3127,0.0769,0.9836,-2.7099,-0.5496,-0.8321,0,1,0
-0.3118,0.0786,0.9736,-2.8779,-1.0458,-1.3359,0,1,0
-0.3035,0.0703,0.9729,-2.8931,-1.5191,-0.9237,0,1,0
-0.2944,0.0645,0.9739,-2.1527,-1.3359,-1.4122,0,1,0
-0.3005,0.0703,0.9719,-2.0992,-0.8092,-1.3359,0,1,0
-0.29,0.0574,0.9858,-1.8092,-0.7252,-0.8779,0,0,0
-0.2881,0.0576,0.98,-1.7176,-0.3664,-0.4427,0,0,0
-0.2964,0.0581,0.9731,-1.458,-0.084,-0.084,0,0,0
-0.2983,0.0652,0.9761,-1.1527,0.1756,0.6947,0,0,0
-0.3196,0.0701,0.9741,-0.771,0.7786,0.1221,0,0,0
-0.3181,0.0703,0.9773,-0.5191,-0.3359,-0.8473,0,0,0
-0.3096,0.0713,0.9819,-1.3511,-1.0687,-1.0305,0,0,0
-0.3066,0.0625,0.9856,-1.9618,-1.229,-0.9313,0,0,0
-0.2993,0.0591,0.9829,-1.542,-0.6718,-0.6336,0,0,0
-0.2903,0.0598,0.9849,-1.1679,0.1603,-0.2595,0,0,0
-0.3013,0.0657,0.9844,-1.2137,0.3664,0.6412,0,0,0
-0.3113,0.0659,0.9758,-1.084,0.3435,0.2672,0,0,0
-0.3015,0.0674,0.9839,-0.9924,1.1374,-0.2443,0,0,0
-0.3115,0.0732,0.9797,-1.6947,0.8702,-0.6107,0,0,0
-0.3064,0.074,0.9744,-2.6947,-0.4046,-0.1145,0,0,0
-0.3071,0.0737,0.9729,-3.687,-0.8397,-0.7328,0,0,0
-0.3042,0.0642,0.9724,-2.8855,-1.3969,-1.7634,0,0,0
-0.2869,0.0645,0.9734,-2.2443,-1.4504,-1.0611,0,0,0
-0.2864,0.0681,0.9565,-2.5573,-1.1908,-0.1374,0,0,0
-0.2866,0.0586,0.9563,-0.8855,-1.1374,0.8855,0,0,0
-0.2876,0.0669,0.9753,0.1374,0.0382,1.9389,0,0,0
-0.3093,0.0801,0.9746,0.2214,0.9542,1.8015,0,0,0
-0.3359,0.0781,0.9739,-0.4122,0.0687,0.3588,0,0,0
-0.3401,0.0894,0.9751,-1.2137,-1.6412,-1.1985,0,0,0
-0.3311,0.0735,0.9827,-1.8779,-4.0153,-3.0153,0,0,0
-0.2861,0.0598,0.9922,-1.0763,-3.4809,-3.7328,0,0,0
-0.2673,0.0493,1.0078,-0.542,-0.6412,-1.6641,0,0,0
-0.2788,0.0532,1.0093,-0.4351,1.5344,0.374,0,0,0
-0.3062,0.0664,1.0115,-1.0992,2.1221,1.084,0,0,0
-0.321,0.0793,1.0081,-2.5573,1.2977,0.5115,0,0,0
-0.3342,0.0857,0.9949,-4.916,0.8168,-0.145,0,0,0
-0.3308,0.0786,0.9624,-5.5496,-0.6947,-1.6336,0,0,0
-0.3167,0.0688,0.9478,-4.8321,-1.4885,-2.6718,0,0,0
-0.2888,0.0576,0.9414,-2.5344,-1.1603,-3.0076,0,0,0
-0.2773,0.0522,0.9495,-0.9695,-0.0534,-1.1985,0,0,0
-0.2837,0.0603,0.9668,0.6565,1.2366,0.1145,0,0,0
-0.3074,0.0674,0.9785,0.7939,1.2214,0.3053,0,0,0
-0.3118,0.073,0.9893,-0.084,0.4198,0.2977,0,0,0
-0.321,0.0762,0.9912,-1.5954,-0.9313,-0.0076,0,0,0
-0.3088,0.0735,0.9827,-2.4504,-1.8931,-0.8473,0,0,0
-0.2917,0.0645,0.9954,-2.7099,-1.4962,-1.4351,0,0,0
-0.2805,0.0601,0.9895,-2.1908,-0.6565,-1.0611,0,0,0
-0.2888,0.0583,0.9836,-0.9313,0.2977,-0.4885,0,0,0
-0.2952,0.0669,0.9868,-0.9924,1.0687,-0.0153,0,0,0
-0.3081,0.0728,0.9778,-2.2901,0.5725,-0.0458,0,0,0
-0.3179,0.074,0.9712,-3.2824,-0.0916,-0.1603,0,0,0
-0.3142,0.0715,0.9673,-3.5878,-0.8626,-0.6718,0,0,0
-0.2988,0.0635,0.9612,-3.2137,-0.4351,-0.7252,0,0,0
-0.3013,0.0718,0.9539,-2.6565,-0.1756,-0.5802,0,0,0
-0.301,0.0576,0.9575,-0.8244,-0.4885,-1.0305,0,0,0
-0.3018,0.0696,0.9702,-0.145,0.2137,-0.5496,0,0,0
-0.2961,0.063,0.9924,-0.2748,-0.0458,-0.6031,0,0,0
-0.3066,0.0752,0.9897,-1.2748,0.145,0.0153,0,0,0
-0.3145,0.0737,0.9883,-2.4351,-0.771,-0.0229,0,0,0
-0.3115,0.0723,0.9854,-2.4733,-1.145,-0.5267,0,0,0
-0.3015,0.0725,0.9758,-2.7328,-0.5038,-0.9389,0,0,0
-0.2944,0.0679,0.9758,-2.1756,0.0916,-0.4122,0,0,0
-0.3096,0.0706,0.9766,-1.4733,0.3282,0.0229,0,0,0
-0.3218,0.0737,0.9736,-0.9313,0.0153,-0.4046,0,0,0
-0.311,0.073,0.9824,-1.6107,-0.687,-0.5267,0,0,0
-0.311,0.0771,0.9885,-2.0305,-0.1679,-1.1527,0,0,0
-0.312,0.0671,0.9768,-2.3511,-0.687,-1.7023,0,0,0
-0.3,0.0649,0.9722,-2.5344,-0.7863,-1.3435,0,0,0
-0.2947,0.0623,0.9687,-1.8244,-0.1069,-0.8092,0,0,0
-0.2944,0.0603,0.9729,-1.2519,0.5115,-0.3206,0,0,0
-0.3032,0.0664,0.9753,-0.9389,0.7405,-0.2748,0,0,0
-0.3115,0.0693,0.9766,-0.9084,0.3817,-1.3053,0,0,0
-0.3015,0.0649,0.9836,-1.4656,-0.313,-0.8626,0,0,0
-0.3032,0.0649,0.9937,-2.3817,-0.9618,-0.6412,0,0,0
-0.3013,0.0667,0.9822,-2.5573,-1.0076,-0.6336,0,0,0
-0.2971,0.0625,0.9749,-2.4885,-0.8244,-0.2443,0,0,0
-0.2988,0.0686,0.9753,-2.6489,-0.687,-0.0916,0,0,0
-0.3071,0.0696,0.9695,-2.3511,-0.4962,-0.0763,0,0,0
-0.3118,0.0674,0.9712,-1.5725,-1.1069,-0.7252,0,0,0
-0.2964,0.0762,0.9734,-1.6947,-0.8855,-0.7786,0,0,0
-0.3008,0.0669,0.9792,-1.0153,-0.3817,-0.0763,0,0,0
-0.3066,0.0762,0.9822,-0.8015,0.6489,0.0153,0,0,0
-0.3223,0.0815,0.9824,-1.1908,0.3893,-0.313,0,0,0
-0.321,0.0823,0.988,-1.5954,-0.7634,-1.2824,0,0,0
-0.3113,0.0708,0.9844,-1.8931,-1.4046,-2.1679,0,0,0
-0.2993,0.0708,0.9861,-2.5878,-0.7252,-2.3206,0,0,0
-0.2937,0.0659,0.9812,-2.8779,0.0382,-1.8244,0,0,0
-0.3032,0.0613,0.9736,-3.6641,-1.1527,-1.9466,0,0,0
-0.2959,0.0654,0.9683,-3.3282,-1.7099,-1.4656,0,0,0
-0.2979,0.0596,0.957,-2.2824,-1.687,-1.9771,0,0,0
-0.2905,0.0535,0.9609,-1.374,-0.7252,-0.855,0,0,0
-0.3008,0.0635,0.9583,-1.1145,-0.0305,-0.3053,0,0,0
-0.3115,0.0571,0.969,-0.1527,-0.7634,-1.1679,0,0,0
-0.3022,0.0581,0.9761,-0.2824,-1.4351,-0.7481,0,0,0
-0.2939,0.0586,0.9836,0.0,-0.5038,-0.5267,0,0,0
-0.2971,0.0598,0.9973,-0.0534,-0.2443,0.1298,0,0,0
-0.3157,0.0693,0.9841,-0.8473,-0.0611,0.8626,0,0,0
-0.3176,0.0701,0.9919,-1.4504,-1.313,0.458,0,0,0
-0.312,0.0676,0.9966,-2.1679,-0.6565,-0.0763,0,0,0
-0.311,0.0679,0.9927,-3.0382,-0.3664,-0.1145,0,0,0
-0.3245,0.0703,0.9836,-3.1679,-0.1603,-0.8397,0,0,0
-0.3218,0.0737,0.978,-3.1603,-1.0763,-1.9695,0,0,0
-0.3022,0.0671,0.9761,-3.0229,-1.1908,-2.4122,0,0,0
-0.282,0.0618,0.9785,-2.5191,-0.1221,-1.5038,0,0,0
-0.2908,0.0598,0.9634,-0.8473,0.8473,-0.8855,0,0,0
-0.2969,0.0669,0.9788,0.0687,1.0611,0.0992,0,0,0
-0.2964,0.0647,0.9958,-0.5878,0.916,0.458,0,0,0
-0.314,0.0759,0.991,-2.1069,0.0687,0.6107,0,0,0
-0.3157,0.0642,0.988,-2.9313,-0.9542,-0.3969,0,0,0
-0.3054,0.0667,0.9768,-3.2977,-0.9313,-0.8397,0,0,0
-0.3074,0.0635,0.9644,-2.8473,-0.6565,-0.7328,0,0,0
-0.3091,0.072,0.9683,-2.1298,-0.7481,-0.8779,0,0,0
-0.3042,0.0696,0.9705,-0.9771,-0.5573,-1.084,0,0,0
-0.2981,0.0732,0.9802,-0.9084,0.145,-0.6336,0,0,0
-0.3188,0.0735,0.9844,-1.6031,-0.3893,-1.3282,0,0,0
-0.3103,0.0708,0.9868,-2.0763,-1.3817,-1.7099,0,0,0
-0.3047,0.0671,0.9834,-3.2061,-0.8626,-1.2519,0,0,0
-0.3113,0.0684,0.9731,-3.1374,-0.4122,-1.4122,0,0,0
-0.3103,0.0583,0.9614,-2.5496,-1.0229,-1.7405,0,0,0
-0.3047,0.0588,0.9648,-2.0992,-1.0,-1.6641,0,0,0
-0.2813,0.0447,0.9758,-1.0153,-0.4733,-1.374,0,0,0
-0.2756,0.0425,0.9768,-0.6718,0.4809,0.458,0,0,0
-0.2888,0.0593,0.9819,-0.8779,0.6565,1.8931,0,0,0
-0.3174,0.0652,0.9805,-1.7405,-0.1145,1.5954,0,0,0
-0.3215,0.0793,0.9839,-2.4351,-1.084,0.0687,0,0,0
-0.3198,0.074,0.9741,-3.0992,-1.5802,-1.1221,0,0,0
-0.2983,0.0674,0.9709,-2.5878,-1.7863,-1.6565,0,0,0
-0.2849,0.0579,0.9783,-1.4351,-0.6107,-0.6031,0,0,0
-0.2876,0.0669,0.9797,-0.4351,0.8092,0.6107,0,0,0
-0.3066,0.0693,0.9846,0.2901,0.9542,0.3893,0,0,0
-0.3115,0.0784,0.9924,-0.9847,0.3359,0.4733,0,0,0
-0.3159,0.0847,0.9902,-2.3282,-0.3817,0.8168,0,0,0
-0.3264,0.0837,0.9775,-3.4733,-1.4885,-0.5802,0,0,0
-0.3162,0.0737,0.9722,-3.2519,-2.2137,-1.5344,0,0,0
-0.3079,0.0781,0.9741,-3.1069,-1.855,-1.7405,0,0,0
-0.3066,0.0647,0.9712,-1.9542,-1.2519,-2.4046,0,0,0
-0.3027,0.0652,0.97,-1.3053,-1.0076,-2.084,0,0,0
-0.304,0.0615,0.967,-1.229,-0.6794,-1.7328,0,0,0
-0.3071,0.064,0.9734,-1.3588,-0.9771,-1.3511,0,0,0
-0.3027,0.0547,0.9761,-1.1908,-1.5954,-1.3053,0,0,0
-0.2834,0.052,0.9849,-0.8244,-1.0229,-0.8015,0,0,0
-0.2893,0.0522,0.9834,-0.7863,0.084,-0.4885,0,0,0
-0.2942,0.0552,0.9924,-0.7557,-0.2901,-0.0458,0,0,0
-0.2949,0.0564,0.9937,-1.1756,-0.8702,0.2519,0,0,0
-0.3098,0.0698,0.9875,-1.7939,-0.6412,0.1298,0,0,0
-0.3066,0.063,0.9946,-2.5344,-0.1298,0.1908,0,0,0
-0.313,0.0691,0.9783,-2.8397,0.1527,-0.0534,0,0,0
-0.3113,0.0642,0.9729,-2.2519,-0.3359,-0.1145,0,0,0
-0.312,0.0701,0.9673,-1.8931,-0.6412,-0.7328,0,0,0
-0.3135,0.0686,0.9753,-1.8626,-0.5725,-0.8702,0,0,0
-0.303,0.0601,0.9871,-1.9084,-0.687,-0.6489,0,0,0
-0.302,0.0623,0.9744,-1.8397,-0.2061,-0.3893,0,0,0
-0.2991,0.0632,0.9734,-1.7863,0.0458,0.229,0,0,0
-0.3074,0.0632,0.9771,-1.2824,-0.0992,0.3435,0,0,0
-0.3098,0.0593,0.9766,-1.1221,-0.1985,-0.4198,0,0,0
-0.3044,0.0662,0.9795,-0.8626,0.0305,-0.3435,0,0,0
-0.3022,0.0637,0.9771,-0.9313,-0.2061,-0.4122,0,0,0
-0.3003,0.0593,0.989,-1.1985,-0.3893,-0.3282,0,0,0
-0.2966,0.0649,0.9861,-1.5878,-0.2519,-0.1527,0,0,0
-0.2971,0.0669,0.9922,-2.1603,0.084,-0.0687,0,0,0
-0.3069,0.0723,0.9771,-2.6641,-0.0534,-0.0153,0,0,0
-0.3052,0.0718,0.9802,-2.626,-0.6947,-0.1221,0,0,0
-0.3052,0.0688,0.9722,-3.0076,-1.5344,-0.4198,0,0,0
-0.2966,0.0637,0.9658,-2.313,-1.0611,-0.1145,0,0,0
-0.3025,0.0654,0.9731,-1.6107,0.4122,0.1756,0,0,0
-0.3123,0.0808,0.9729,-1.0763,0.3206,-0.1145,0,0,0
-0.3254,0.0752,0.9719,-1.5267,-0.6031,-0.8321,0,0,0
-0.3125,0.074,0.9805,-2.2748,-1.0305,-1.9008,0,0,0
-0.293,0.0642,0.9802,-2.084,-1.2519,-1.9084,0,0,0
-0.2896,0.0662,0.9746,-2.2977,-1.7252,-0.8244,0,0,0
-0.2878,0.0588,0.9802,-2.1985,-1.0229,0.0687,0,0,0
-0.3013,0.0671,0.9771,-1.6794,-0.3664,0.0076,0,0,0
-0.3057,0.0645,0.9709,-1.1221,-0.4885,-0.0305,0,0,0
-0.3101,0.0718,0.9766,-1.8092,-0.3588,0.1603,0,0,0
-0.321,0.0803,0.9648,-2.1985,-1.0763,-0.6565,0,0,0
-0.3193,0.0723,0.9678,-1.8931,-1.9313,-2.0687,0,0,0
-0.3076,0.0652,0.9751,-1.5115,-1.7176,-3.2214,0,0,0
-0.2886,0.0569,0.9873,-1.5038,-1.0687,-2.4198,0,0,0
-0.2759,0.051,0.9854,-1.2824,-0.4275,-1.3664,0,0,0
-0.2922,0.0537,0.9844,-1.3053,-0.374,-0.3206,0,0,0
-0.3037,0.0601,0.9861,-1.7405,-0.8931,0.3053,0,0,0
-0.3152,0.0684,0.9841,-2.229,-1.2672,0.0763,0,0,0
-0.3088,0.0591,0.9785,-2.4046,-0.9847,-0.4733,0,0,0
-0.3042,0.0598,0.9763,-1.9313,-0.1756,-0.5649,0,0,0
-0.303,0.0586,0.9792,-0.7557,0.0382,-0.3969,0,0,0
-0.2991,0.0647,0.9829,-0.5954,0.8015,-0.1069,0,0,0
-0.3123,0.0728,0.9844,-1.1221,0.7405,0.4351,0,0,0
-0.321,0.0693,0.9863,-2.1679,-0.7863,-0.1069,0,0,0
-0.3132,0.0703,0.9858,-2.9313,-0.8015,-0.8473,0,0,0
-0.303,0.0696,0.9761,-3.4046,-0.6489,-0.8779,0,0,0
-0.3022,0.062,0.9685,-2.5267,0.1527,-0.8168,0,0,0
-0.3059,0.0713,0.9685,-1.7557,0.0229,-1.0763,0,0,0
-0.3132,0.0732,0.9766,-1.3435,-0.7557,-1.5496,0,0,0
-0.2974,0.0637,0.9873,-1.7863,-0.7252,-1.2061,0,0,0
-0.2932,0.0581,0.9858,-1.9008,-0.229,-1.2595,0,0,0
-0.2961,0.0615,0.9861,-2.5115,-0.458,-1.2366,0,0,0
-0.2969,0.063,0.9861,-2.9389,-0.7863,-0.3969,0,0,0
-0.3,0.0684,0.9792,-3.2901,-0.5878,0.0382,0,0,0
-0.3064,0.073,0.9631,-2.9924,-0.687,-0.229,0,0,0
-0.3022,0.0645,0.9612,-2.4275,-1.4656,-0.6947,0,0,0
-0.2966,0.0654,0.9631,-1.2824,-1.0382,-0.5878,0,0,0
-0.301,0.0593,0.9626,-0.3053,0.0229,-0.5954,0,0,0
-0.2983,0.0693,0.9724,0.458,0.6183,-0.6489,0,0,0
-0.2974,0.0718,0.9895,-0.1374,1.0076,-0.0229,0,0,0
-0.3137,0.0735,0.9827,-0.6641,0.084,-0.4885,0,0,0
-0.3062,0.0684,0.9868,-1.1069,-0.5649,-0.5725,0,0,0
-0.304,0.0686,0.9897,-1.9924,-0.1145,-0.0687,0,0,0
-0.3228,0.0752,0.9624,-2.6794,-0.3588,-0.3206,0,0,0
-0.3159,0.0649,0.9709,-2.1756,-1.5649,-1.0,0,0,0
-0.3105,0.0667,0.9744,-1.8397,-1.9542,-1.9008,0,0,0
-0.2969,0.0588,0.9771,-1.771,-1.3206,-1.5191,0,0,0
-0.2954,0.0527,0.981,-1.2366,-1.0382,-0.4656,0,0,0
-0.2983,0.0522,0.9871,-0.9237,0.3206,-0.1679,0,0,0
-0.2993,0.0549,0.9907,-0.5802,0.5344,-0.1832,0,0,0
-0.3044,0.0632,0.9949,-0.9084,1.3893,0.6031,0,0,0
-0.323,0.0718,0.9917,-2.2366,0.6947,0.2061,0,0,0
-0.3193,0.0686,0.9878,-2.8779,-0.8855,-0.8702,0,0,0
-0.3118,0.0732,0.9832,-3.6565,-0.9237,-1.2977,0,0,0
-0.3035,0.062,0.9812,-4.2366,-0.8321,-1.1374,0,0,0
-0.2964,0.0605,0.97,-3.5038,-0.3817,-0.9771,0,0,0
-0.2925,0.061,0.9712,-3.0,0.1908,-0.7939,0,0,0
-0.2959,0.0657,0.9644,-2.2977,0.4962,-0.4427,0,0,0
-0.3037,0.0659,0.9766,-1.4122,0.5954,-0.9542,0,0,0
-0.3025,0.0701,0.9724,-1.5954,0.9008,-0.229,0,0,0
-0.3093,0.0698,0.9724,-1.7023,0.2977,-0.7328,0,0,0
-0.3083,0.0686,0.9753,-1.6183,-0.3435,-0.9466,0,0,0
-0.304,0.0703,0.9792,-2.1756,-0.9847,-1.145,0,0,0
-0.3005,0.0635,0.988,-2.1145,-1.145,-1.4427,0,0,0
-0.2976,0.0659,0.9863,-2.8473,-1.4656,-1.1527,0,0,0
-0.2957,0.0608,0.9841,-2.7405,-0.4656,-0.916,0,0,0
-0.2983,0.0664,0.9851,-2.1298,-0.5191,-0.6412,0,0,0
-0.3096,0.0669,0.9802,-2.5191,-0.8931,-0.7863,0,0,0
-0.3105,0.0688,0.9841,-3.6718,-0.4809,-1.0611,0,0,0
-0.3123,0.0654,0.9731,-3.4275,-0.7786,-0.9466,0,0,0
-0.3071,0.064,0.9612,-2.8244,-1.2061,-0.7557,0,0,0
-0.2981,0.0579,0.9709,-2.374,-0.5649,-1.0382,0,0,0
-0.3049,0.0564,0.9695,-1.7405,-0.7557,-0.5573,0,0,0
-0.3037,0.0557,0.9709,-1.5267,-0.9084,0.1603,0,0,0
-0.3096,0.0601,0.9807,-1.3053,-0.0229,-0.0305,0,0,0
-0.3262,0.0586,0.9741,-1.5802,-2.2214,-0.8473,0,0,0
-0.3164,0.063,0.98,-1.374,-1.4885,-0.8092,0,0,0
-0.3022,0.0491,0.9912,-1.1832,-0.1756,-0.8626,0,0,0
-0.2979,0.0552,0.9924,-1.5802,0.1221,-0.9466,0,0,0
-0.3066,0.0581,0.9951,-1.7557,-0.855,-0.6489,0,0,0
-0.2976,0.0525,0.9941,-2.626,-0.687,-0.3053,0,0,0
-0.2935,0.0564,0.9956,-2.7023,0.5725,0.5496,0,0,0
-0.3093,0.0588,0.9722,-3.0229,0.5878,0.2137,0,0,0
-0.3027,0.0581,0.969,-2.8397,0.0916,0.1145,0,0,0
-0.3013,0.0566,0.9692,-2.374,-0.0229,0.0992,0,0,0
-0.3005,0.0625,0.9609,-1.4809,0.4198,0.0305,0,0,0
-0.3076,0.0645,0.9634,-0.9618,-0.0458,-0.0992,0,0,0
-0.302,0.0723,0.9758,-0.6718,-0.4427,-0.0687,0,0,0
-0.2969,0.0593,0.9863,-0.7405,-0.0534,-0.458,0,0,0
-0.3179,0.0818,0.9741,-2.2366,-0.3893,-0.4733,0,0,0
-0.3137,0.0674,0.9741,-2.2672,-3.3359,-1.2901,0,0,0
-0.2922,0.0554,0.9951,-1.2061,-2.8015,-0.9466,0,0,0
-0.2917,0.0679,1.0068,-2.229,-0.4046,0.4198,0,0,0
-0.314,0.0725,0.9734,-2.8855,-0.2214,-0.0687,0,0,0
-0.3191,0.0598,0.9658,-1.8321,-1.9542,-0.9771,0,0,0
-0.2964,0.062,0.9736,-1.6107,-1.8321,-0.6489,0,0,0
-0.2935,0.0618,0.9741,-1.8931,-0.6565,0.229,0,0,0
-0.3057,0.0544,0.9739,-1.0916,-0.7939,0.0687,0,0,0
-0.2971,0.0637,0.9775,-0.7939,-0.6031,0.1069,0,0,0
-0.2991,0.0652,0.9773,-1.2901,-0.4504,0.3435,0,0,0
-0.3093,0.0632,0.9773,-1.313,-0.1603,1.0229,0,0,0
-0.3176,0.0662,0.9807,-1.2672,-0.4351,0.4809,0,0,0
-0.324,0.0735,0.9707,-1.6412,-1.4504,-0.6412,0,0,0
-0.311,0.0647,0.9802,-1.7099,-1.9084,-0.916,0,0,0
-0.3013,0.0605,0.9846,-1.7481,-0.9771,-1.4656,0,0,0
-0.2959,0.0588,0.9878,-1.0534,-0.5725,-1.5496,0,0,0
-0.2969,0.0569,0.9888,-1.3435,-1.0,-0.6489,0,0,0
-0.2893,0.054,0.9888,-1.8855,-0.5344,-0.1908,0,0,0
-0.2959,0.0569,0.9834,-1.4733,0.4809,0.0076,0,0,0
-0.3098,0.0649,0.9805,-1.9771,0.0,0.6107,0,0,0
-0.3096,0.0657,0.9802,-2.3511,-0.5573,0.6565,0,0,0
-0.3186,0.0681,0.9692,-2.374,-0.5344,-0.1221,0,0,0
-0.3022,0.0596,0.9766,-1.6718,-0.5725,-0.9008,0,0,0
-0.2998,0.0625,0.9836,-1.7252,-0.2061,-0.0763,0,0,0
-0.2991,0.0598,0.9812,-1.9084,-0.0153,-0.1603,0,0,0
-0.3042,0.0635,0.9751,-1.7786,-0.4122,-0.3511,0,0,0
-0.311,0.0698,0.9829,-1.9695,-0.5878,0.2214,0,0,0
-0.3108,0.0625,0.9792,-2.374,-0.5191,-0.2595,0,0,0
-0.3167,0.0698,0.9746,-2.0763,-0.1603,-0.8244,0,0,0
-0.3137,0.0654,0.9795,-1.855,-0.4885,-1.1985,0,0,0
-0.311,0.0647,0.9783,-1.6183,-0.5344,-1.5344,0,0,0
-0.2981,0.0579,0.9841,-2.2519,-0.4962,-1.0153,0,0,0
-0.292,0.0566,0.9871,-1.9542,-0.458,-0.6794,0,0,0
-0.2888,0.0547,0.9744,-1.9237,-0.2748,-0.1908,0,0,0
-0.3005,0.0574,0.98,-1.3969,-0.0687,0.7405,0,0,0
-0.3018,0.063,0.981,-1.2977,-0.1374,0.5191,0,0,0
-0.3064,0.0676,0.9807,-1.9389,-0.2061,0.1527,0,0,0
-0.3142,0.0725,0.9824,-1.8855,-0.3511,-1.1527,0,0,0
-0.3005,0.0605,0.9814,-2.3511,-0.8092,-1.5344,0,0,0
-0.2876,0.0552,0.979,-2.3282,-0.4962,-0.9771,0,0,0
-0.2966,0.0613,0.9773,-2.2214,-0.0611,-0.4427,0,0,0
-0.2961,0.0608,0.9773,-1.7176,-0.0992,0.1603,0,0,0
-0.3057,0.0664,0.9753,-1.7557,0.0153,0.9008,0,0,0
-0.3201,0.0715,0.9658,-1.9389,-0.3664,0.0687,0,0,0
-0.3171,0.0691,0.9744,-1.4427,-0.5954,-0.9466,0,0,0
-0.3088,0.0674,0.9729,-1.3206,-0.5573,-1.1908,0,0,0
-0.3027,0.0637,0.9846,-0.9924,-0.7328,-1.5878,0,0,0
-0.2957,0.0659,0.988,-0.7786,-0.4351,-1.0,0,0,0
-0.2969,0.0632,0.9907,-1.8931,0.0992,-0.5344,0,0,0
-0.3125,0.0637,0.9802,-2.8015,-0.1985,-0.9313,0,0,0
-0.3154,0.0598,0.9802,-3.0076,-1.687,-0.9542,0,0,0
-0.3018,0.0637,0.9771,-2.9542,-1.8015,-1.5191,0,0,0
-0.2988,0.0608,0.9802,-2.6794,-0.3511,-1.1145,0,0,0
-0.3003,0.0586,0.979,-1.8244,0.2137,-0.687,0,0,0
-0.3059,0.0613,0.9771,-1.4733,0.4351,-0.5573,0,0,0
-0.3179,0.0659,0.988,-2.0534,-0.4046,-0.7328,0,0,0
-0.321,0.0647,0.9839,-3.5191,-1.9695,-1.8702,0,0,0
-0.3076,0.0579,0.9849,-4.0687,-2.2824,-2.1145,0,0,0
-0.2947,0.0576,0.9792,-3.7176,-1.229,-2.374,0,0,0
-0.2844,0.0566,0.9795,-3.084,-0.2824,-1.9084,0,0,0
-0.2947,0.0564,0.9771,-1.8855,0.9847,-1.5954,0,0,0
-0.3013,0.062,0.9768,-2.5954,0.084,-1.3511,0,0,0
-0.2917,0.0596,0.9739,-2.7786,-0.8092,-1.3893,0,0,0
-0.2937,0.062,0.9687,-2.9771,-0.9618,-0.8855,0,0,0
-0.2986,0.061,0.9766,-2.9466,-0.4962,-0.7328,0,0,0
-0.2988,0.0659,0.9556,-2.626,-0.7023,-0.3969,0,0,0
-0.3079,0.0618,0.9561,-1.5878,-0.2061,-0.7557,0,0,0
-0.3049,0.0664,0.9687,-0.7634,-0.5496,-0.9466,0,0,0
-0.3135,0.0674,0.97,-1.1374,-0.6947,-0.771,0,0,0
-0.3174,0.0679,0.9773,-0.9924,-2.1374,-1.4427,0,0,0
-0.3079,0.0601,0.9883,-0.8702,-2.4351,-2.4275,0,0,0
-0.3018,0.0583,0.9937,-0.7863,-1.3511,-2.8092,0,0,0
-0.2881,0.0564,0.9983,-0.5573,-0.4504,-2.3282,0,0,0
-0.29,0.054,1.0037,-0.9618,0.626,-1.7634,0,0,0
-0.2988,0.05,1.0,-2.0153,0.6183,-1.8244,0,0,0
-0.3005,0.0508,1.001,-2.4504,-0.0763,-0.6183,0,0,0
-0.3181,0.0635,0.9888,-4.0153,-0.8779,-0.2901,0,0,0
-0.3313,0.0618,0.9587,-4.1756,-1.4275,-2.229,0,0,0
-0.3083,0.0503,0.9622,-3.0611,-2.3359,-2.8397,0,0,0
-0.2861,0.05,0.9656,-2.7405,-0.8702,-2.1985,0,0,0
-0.2798,0.0425,0.9707,-1.0382,1.1221,-1.5115,0,0,0
-0.2893,0.0498,0.9736,0.1145,1.8779,-0.0458,0,0,0
-0.3103,0.0647,0.9856,-0.5191,1.2672,0.3588,0,0,0
-0.3242,0.0691,0.9937,-2.2443,0.1069,-0.313,0,0,0
-0.3181,0.0662,0.9871,-2.9771,-0.5878,-1.6107,0,0,0
-0.3064,0.0591,0.9766,-3.3435,-1.3435,-1.6565,0,0,0
-0.2959,0.052,0.9749,-2.9618,-1.5344,-1.6336,0,0,0
-0.2781,0.0505,0.981,-2.3282,-0.0458,-1.0458,0,0,0
-0.2864,0.0532,0.9856,-1.8397,0.8321,0.1298,0,0,0
-0.2991,0.0564,0.989,-1.8702,0.458,0.4275,0,0,0
-0.3113,0.0732,0.9854,-2.7099,0.1679,0.5344,0,0,0
-0.3254,0.0725,0.9817,-3.0534,0.1374,-0.8092,0,0,0
-0.313,0.0674,0.969,-4.0076,-1.0611,-1.6031,0,0,0
-0.3074,0.0654,0.9661,-3.7099,-1.4809,-1.8168,0,0,0
-0.2974,0.0535,0.9751,-2.4275,-0.7634,-2.2061,0,0,0
-0.2939,0.0586,0.9666,-1.6947,0.0153,-1.3511,0,0,0
-0.3054,0.0618,0.9731,-1.4427,0.1985,-0.5191,0,0,0
-0.3164,0.0637,0.9731,-1.6565,-0.0305,-1.6641,0,0,0
-0.3101,0.0552,0.9709,-1.7176,-0.8626,-2.1145,0,0,0
-0.3032,0.0515,0.9714,-2.0687,-1.4962,-2.0916,0,0,0
-0.3005,0.0513,0.9761,-2.1374,-1.2824,-1.6641,0,0,0
-0.2979,0.0496,0.9812,-1.9008,-1.1374,-1.5725,0,0,0
-0.3025,0.0508,0.9863,-2.4504,-1.2824,-1.5267,0,0,0
-0.2996,0.0471,0.9775,-2.3893,-1.2824,-1.4198,0,0,0
-0.3025,0.0422,0.9731,-2.0611,-1.4427,-1.229,0,0,0
-0.303,0.0452,0.9819,-1.8244,-1.0076,-1.3206,0,0,0
-0.2993,0.0488,0.9807,-1.8397,-0.4885,-0.5573,0,0,0
-0.302,0.0459,0.9861,-1.5344,-0.5191,-0.4275,0,0,0
-0.2983,0.0488,0.9873,-1.5878,-0.6565,-0.2061,0,0,0
-0.3022,0.0547,0.9917,-1.7634,-0.2366,0.3817,0,0,0
-0.3079,0.0513,0.9873,-2.0992,0.3588,-0.145,0,0,0
-0.3184,0.054,0.9832,-2.4427,0.145,-0.313,0,0,0
-0.3188,0.0583,0.9856,-3.3359,-0.8244,-0.8855,0,0,0
-0.3079,0.0513,0.9829,-3.1069,-0.7863,-1.4733,0,0,0
-0.29,0.0498,0.9724,-3.0687,-0.1908,-1.7786,0,0,0
-0.2959,0.0498,0.9678,-2.8931,0.1832,-1.0382,0,0,0
-0.2981,0.0474,0.9729,-1.8321,-0.2214,-0.5496,0,0,0
-0.2981,0.0471,0.9749,-1.3206,-0.2824,-0.2366,0,0,0
-0.3013,0.0449,0.9749,-0.9771,0.4733,0.3511,0,0,0
-0.2974,0.0522,0.9827,-0.7863,0.8015,0.4656,0,0,0
-0.3074,0.0623,0.9761,-0.8092,0.9084,0.3664,0,0,0
-0.3206,0.0591,0.988,-1.4198,-0.3359,0.0763,0,0,0
-0.3069,0.0671,0.9854,-2.5038,-0.6412,-0.8855,0,0,0
-0.3113,0.0586,0.9954,-3.2977,-0.6489,-0.8397,0,0,0
-0.302,0.0581,0.99,-3.6183,-0.7481,-1.4046,0,0,0
-0.2969,0.0525,0.9829,-3.7481,-0.7252,-1.229,0,0,0
-0.3057,0.0535,0.9705,-3.7557,-0.6718,-0.8168,0,0,0
-0.3083,0.0481,0.9641,-3.4351,-1.1069,-1.9771,0,0,0
-0.3037,0.0481,0.9651,-3.1298,-1.5573,-1.8244,0,0,0
-0.2876,0.0383,0.9673,-2.9237,-0.8397,-1.3511,0,0,0
-0.2971,0.0378,0.9697,-2.9389,-0.7328,-1.1145,0,0,0
-0.3022,0.0398,0.9561,-2.3893,-1.1145,-0.4504,0,0,0
-0.3074,0.0376,0.9612,-2.0229,-1.8779,-0.3206,0,0,0
-0.2883,0.0398,0.9697,-1.2443,-1.6412,-0.6641,0,0,0
-0.2773,0.03,0.9866,-0.0534,-0.2977,0.7328,0,0,0
-0.2878,0.0461,1.0066,0.3893,1.6794,3.0687,0,0,0
-0.3145,0.0547,1.0088,-0.1527,3.4962,3.2977,0,0,0
-0.3418,0.0742,1.0,-2.0687,2.4122,1.9389,0,0,0
-0.3508,0.0679,0.9937,-3.8779,-0.5115,-0.0611,0,0,0
-0.3223,0.0657,0.9883,-4.8168,-0.8244,-1.4198,0,0,0
-0.3123,0.0547,0.9846,-4.3282,0.0611,-1.9084,0,0,0
-0.3022,0.0596,0.9827,-2.8168,1.3664,-1.542,0,0,0
-0.2944,0.0647,0.9866,-1.0687,2.6489,-0.2901,0,0,0
-0.3054,0.0708,1.001,-0.6336,3.8015,-0.1908,0,0,0
-0.3191,0.0872,0.9998,-1.9695,3.8931,-0.6565,0,0,0
-0.3325,0.0864,1.0022,-3.0229,2.2214,-1.7481,0,0,0
-0.3206,0.0825,0.9875,-4.4046,0.8626,-3.0534,0,0,0
-0.3149,0.0754,0.9741,-5.1832,0.1374,-3.3588,0,0,0
-0.2983,0.0632,0.9646,-4.7863,0.0992,-3.4656,0,0,0
-0.3032,0.0647,0.948,-4.1756,0.145,-4.4275,0,0,0
-0.3101,0.0627,0.9407,-3.6565,-0.8168,-5.4809,0,0,0
-0.2881,0.0422,0.9365,-2.2137,-2.626,-6.3282,0,0,0
-0.2646,0.0369,0.9507,-1.2214,-1.8092,-4.5725,0,0,0
-0.2612,0.0354,0.9504,-1.2748,-1.3206,-3.229,0,0,0
-0.272,0.0308,0.9436,-0.6565,-2.145,-1.1527,0,0,0
-0.2703,0.033,0.9512,-0.0534,-2.5878,-0.2824,0,0,0
-0.2854,0.0415,0.9504,0.3359,-2.0763,0.3206,0,0,0
-0.3015,0.0513,0.9578,0.6641,-1.7634,0.5344,0,0,0
-0.3228,0.0579,0.9565,0.6794,-2.2137,-0.5725,0,0,0
-0.3213,0.0537,0.9832,0.7099,-3.4046,-2.374,0,0,0
-0.3062,0.0569,0.9985,-0.5954,-4.5802,-2.7863,0,0,0
-0.2969,0.0486,0.9888,-2.2214,-4.084,-1.9389,0,0,0
-0.3086,0.0383,0.9788,-1.2977,-3.3664,-1.8931,0,0,0
-0.304,0.0459,0.99,-0.6031,-3.0229,-1.916,0,0,0
-0.3137,0.0503,0.9907,-1.0992,-1.7939,-1.3817,0,0,0
-0.3242,0.0518,0.9858,-1.2137,-2.1832,-1.7481,0,0,0
-0.321,0.0503,0.9915,-0.9237,-2.3053,-2.7786,0,0,0
-0.3118,0.0371,1.0,-1.4809,-2.7786,-2.8931,0,0,0
-0.3044,0.0383,0.9968,-1.8321,-2.2519,-2.4351,0,0,0
-0.3018,0.032,0.9929,-1.2366,-1.2977,-1.855,0,0,0
-0.3052,0.0322,0.9937,-1.1527,-0.6031,-1.6336,0,0,0
-0.3037,0.0293,0.9985,-1.4275,-0.6412,-0.9924,0,0,0
-0.3108,0.0344,0.9868,-0.9847,-0.3817,-0.8244,0,0,0
-0.3167,0.0435,0.9858,-1.1298,-0.5802,-1.3282,0,0,0
-0.3115,0.0408,0.9966,-1.5725,-0.5878,-1.1832,0,0,0
-0.302,0.0325,0.9966,-2.1374,-0.0305,-0.855,0,0,0
-0.3069,0.0435,0.9854,-2.2519,0.4962,0.0687,0,0,0
-0.3037,0.0361,0.9912,-2.2137,0.4275,-0.0076,0,0,0
-0.3132,0.0427,0.9834,-2.4656,0.3969,-0.4809,0,0,0
-0.3057,0.0439,0.9827,-2.9237,-0.1527,-1.0916,0,0,0
-0.2961,0.0405,0.981,-3.4275,-0.0382,-1.2519,0,0,0
-0.291,0.0386,0.9761,-3.3817,0.2901,-0.4198,0,0,0
-0.2874,0.0354,0.9641,-2.3817,0.6031,0.1069,0,0,0
-0.2888,0.0378,0.9624,-1.7481,0.8855,1.0458,0,0,0
-0.2991,0.0415,0.9683,-0.8397,1.084,1.5573,0,0,0
-0.3008,0.0515,0.9751,-0.7099,1.8015,1.3893,0,0,0
-0.3186,0.0671,0.9766,-1.0611,0.8779,0.5496,0,0,0
-0.3105,0.0593,0.9797,-1.9084,-0.9313,0.313,0,0,0
-0.2983,0.0588,0.9817,-2.313,-0.5115,0.0687,0,0,0
-0.2949,0.0518,0.9807,-1.5649,0.4962,0.1221,0,0,0
-0.3022,0.0596,0.9666,-0.9847,0.8473,0.374,0,0,0
-0.3076,0.0669,0.9729,-1.2977,0.2366,0.3588,0,0,0
-0.3091,0.0581,0.9795,-1.229,-0.5267,-0.1756,0,0,0
-0.3044,0.0642,0.981,-1.5878,-0.3435,-0.2977,0,0,0
-0.3025,0.0583,0.979,-1.9771,-0.4351,-0.2901,0,0,0
-0.312,0.0601,0.9687,-1.9618,-1.0305,-0.7176,0,0,0
-0.3018,0.0535,0.969,-1.6107,-1.229,-1.0687,0,0,0
-0.2981,0.0488,0.9729,-0.8626,-0.9313,-1.5038,0,0,0
-0.2986,0.0479,0.98,-0.5573,0.0916,-1.0763,0,0,0
-0.3091,0.0593,0.9763,-1.0229,-0.1832,-1.1603,0,0,0
-0.3145,0.0525,0.9724,-1.5573,-1.7176,-1.3435,0,0,0
-0.3032,0.0537,0.9863,-1.4885,-2.0,-1.3893,0,0,0
-0.3032,0.0474,0.9856,-1.7634,-1.7023,-2.1374,0,0,0
-0.2979,0.0454,0.9795,-2.1221,-1.5038,-1.1908,0,0,0
-0.2969,0.0408,0.9832,-1.7328,-1.0458,-1.3282,0,0,0
-0.2969,0.0442,0.98,-2.2061,-1.0153,-1.1603,0,0,0
-0.3091,0.0432,0.9863,-1.7481,-1.0763,-0.855,0,0,0
-0.3147,0.0527,0.9731,-2.7557,-1.771,-1.2137,0,0,0
-0.3071,0.0481,0.9663,-3.0,-1.8015,-1.7099,0,0,0
-0.2979,0.0398,0.9705,-2.229,-1.8168,-2.0687,0,0,0
-0.2908,0.0356,0.9744,-1.9313,-1.2824,-1.0992,0,0,0
-0.2935,0.0376,0.9766,-1.0992,-0.7328,-0.2519,0,0,0
-0.2971,0.0452,0.9861,-0.5802,-0.458,-0.229,0,0,0
-0.2986,0.0447,0.9937,-0.7863,0.374,0.9466,0,0,0
-0.3154,0.0608,0.9893,-1.5191,0.626,0.8855,0,0,0
-0.325,0.061,0.9917,-1.9237,-0.0687,0.1908,0,0,0
-0.3203,0.0623,0.9873,-2.4504,-0.8092,-1.0458,0,0,0
-0.314,0.0527,0.9895,-2.4733,-1.0534,-1.5038,0,0,0
-0.3064,0.0491,0.9773,-2.4733,-1.3053,-2.0916,0,0,0
-0.2886,0.0403,0.978,-1.229,-1.3282,-1.374,0,0,0
-0.2881,0.0437,0.9875,-0.2061,0.5267,-0.3282,0,0,0
-0.3018,0.0557,0.9963,-0.5038,1.5344,-0.3282,0,0,0
-0.3149,0.0544,0.9949,-1.6412,0.9008,-0.4351,0,0,0
-0.3152,0.0583,0.9866,-3.3053,-0.9237,-0.8626,0,0,0
-0.3157,0.0547,0.9888,-4.0992,-1.6565,-1.8244,0,0,0
-0.2986,0.0427,0.9668,-3.9008,-1.5038,-2.5878,0,0,0
-0.2898,0.0413,0.9592,-3.313,-0.6565,-1.4962,0,0,0
-0.2935,0.0386,0.9685,-2.1908,-0.6412,-1.1832,0,0,0
-0.2942,0.0422,0.9607,-1.4198,-0.3206,-1.1527,0,0,0
-0.3032,0.0498,0.9675,-0.542,-0.1221,-0.374,0,0,0
-0.3027,0.0483,0.9802,-0.8931,-0.0534,-0.2901,0,0,0
-0.3098,0.0496,0.9854,-2.0076,-0.5267,-0.3053,0,0,0
-0.3081,0.0505,0.9829,-2.1756,-1.2061,-0.1985,0,0,0
-0.3086,0.0439,0.9832,-2.0763,-1.7863,-0.9847,0,0,0
-0.2979,0.0435,0.9858,-1.5344,-0.6565,-1.4809,0,0,0
-0.2935,0.0435,0.9836,-1.1527,-0.1603,-0.9847,0,0,0
-0.3079,0.0457,0.9875,-1.3893,-0.4809,-0.6565,0,0,0
-0.2988,0.0498,0.989,-1.3206,-0.5496,-0.9466,0,0,0
-0.3049,0.0515,0.9961,-2.1527,-0.4351,-0.5344,0,0,0
-0.3049,0.0459,0.9851,-3.0229,0.1374,-0.4962,0,0,0
-0.3115,0.0471,0.9678,-2.7481,-0.2366,-0.5649,0,0,0
-0.3083,0.0439,0.9744,-2.5573,-0.9924,-0.7176,0,0,0
-0.3008,0.0432,0.9722,-2.1908,-0.8473,-0.8473,0,0,0
-0.2986,0.0405,0.9712,-1.7405,-0.3053,-0.374,0,0,0
-0.303,0.0449,0.9778,-1.2443,-0.3588,-0.1221,0,0,0
-0.2949,0.0474,0.9846,-1.0458,-0.6183,-0.5649,0,0,0
-0.2974,0.0437,0.9822,-0.8321,-0.3511,0.0076,0,0,0
-0.3044,0.0464,0.9819,-0.6718,-0.145,-0.2824,0,0,0
-0.304,0.05,0.9961,-1.3282,-0.084,-0.1756,0,0,0
-0.3008,0.0486,0.9866,-1.6718,-0.2672,0.1832,0,0,0
-0.3069,0.0496,0.9797,-1.9466,0.2901,-0.0458,0,0,0
-0.3059,0.0464,0.978,-2.8779,-0.5725,0.1985,0,0,0
-0.2976,0.0334,0.978,-2.4962,-0.4962,-0.1832,0,0,0
-0.2932,0.0439,0.97,-2.5649,-0.2824,0.5573,0,0,0
-0.2947,0.0376,0.9702,-1.855,-0.4351,1.2824,0,0,0
-0.3037,0.0471,0.9673,-1.3206,0.1374,1.5115,0,0,0
-0.3132,0.0432,0.9729,-0.8931,-0.1679,0.7405,0,0,0
-0.3062,0.0532,0.9814,-0.8931,-0.687,0.4351,0,0,0
-0.3088,0.0547,0.9766,-0.9542,-0.7939,0.2137,0,0,0
-0.2959,0.0488,0.9915,-1.0153,-0.8092,-0.4198,0,0,0
-0.2866,0.0474,0.9961,-0.8244,0.2748,0.771,0,0,0
-0.3079,0.0593,0.9885,-1.6718,0.1374,1.229,0,0,0
-0.3274,0.0544,0.9771,-2.9313,-2.2443,0.626,0,0,0
-0.314,0.0513,0.9934,-3.6107,-3.5038,-0.229,0,0,0
-0.293,0.0537,0.9873,-3.4046,1.0458,-0.0229,0,0,0
-0.3203,0.0518,0.9641,-2.6565,1.0076,-0.7481,0,0,0
-0.312,0.0603,0.959,-2.0534,-1.2595,-1.1756,0,0,0
-0.2981,0.0518,0.9687,-1.3893,-1.0992,-1.6412,0,0,0
-0.2898,0.0449,0.9856,-0.9313,0.1298,-1.0382,0,0,0
-0.2969,0.0505,0.9819,-1.0229,0.9466,-0.6183,0,0,0
-0.304,0.0483,0.9805,-1.3053,0.7481,-0.542,0,0,0
-0.3049,0.0498,0.9768,-1.3664,0.0076,-0.3053,0,0,0
-0.3,0.052,0.981,-2.145,-0.3969,-0.5573,0,0,0
-0.3042,0.0488,0.9839,-2.8473,-0.7099,-0.7328,0,0,0
-0.3074,0.0498,0.9741,-2.687,-0.3206,-0.7176,0,0,0
-0.2986,0.0557,0.9751,-3.0534,-0.2443,-0.5954,0,0,0
-0.3108,0.0535,0.9727,-3.0153,-0.7557,-0.7405,0,0,0
-0.3032,0.0474,0.9805,-2.1374,-1.0992,-0.7328,0,0,0
-0.2998,0.0481,0.9778,-2.1527,-0.5954,-1.1221,0,0,0
-0.2998,0.043,0.9749,-1.4046,-0.0229,-1.2748,0,0,0
-0.3008,0.0466,0.9724,-1.1145,-0.3664,-1.4046,0,0,0
-0.2925,0.0449,0.9753,-0.9542,0.1145,-0.8397,0,0,0
-0.2922,0.0449,0.9812,-1.0763,0.0687,0.0763,0,0,0
-0.2957,0.05,0.9873,-1.3969,0.5954,1.1298,0,0,0
-0.3206,0.0566,0.9749,-1.5496,0.1298,0.855,0,0,0
-0.3284,0.0586,0.9685,-2.0229,-1.2061,-0.7786,0,0,0
-0.3027,0.0449,0.9849,-1.1679,-1.855,-1.458,0,0,0
-0.2959,0.0527,0.99,-1.0534,-1.2595,-1.5573,0,0,0
-0.2939,0.0486,0.9917,-1.7328,-0.4504,-0.4427,0,0,0
-0.2959,0.0461,0.9941,-1.9466,-0.1374,-0.1832,0,0,0
-0.2998,0.051,0.9814,-2.4427,-0.1985,0.2137,0,0,0
-0.3162,0.0476,0.9775,-2.8855,-0.3359,0.2977,0,0,0
-0.3206,0.0571,0.9597,-2.9237,-0.7405,-0.6947,0,0,0
-0.3174,0.0498,0.9668,-1.8397,-0.9695,-1.4427,0,0,0
-0.302,0.0469,0.9692,-1.1221,-1.0992,-1.6565,0,0,0
-0.2864,0.032,0.9822,0.1221,-0.5878,-1.2977,0,0,0
-0.2817,0.0352,0.9971,0.1603,0.4809,-0.4122,0,0,0
-0.2947,0.0381,1.0083,0.5344,1.1221,0.3282,0,0,0
-0.3047,0.0493,1.0164,-1.0458,0.5725,0.4656,0,0,0
-0.3135,0.0559,0.998,-3.2366,-0.2137,0.3053,0,0,0
-0.3167,0.0493,0.9875,-3.7557,-1.1603,-0.7023,0,0,0
-0.2964,0.0488,0.9761,-3.3893,-0.7939,-0.5038,0,0,0
-0.3,0.0486,0.9658,-2.3969,0.687,-0.5954,0,0,0
-0.3003,0.0498,0.959,-1.5496,1.0534,-0.4962,0,0,0
-0.3049,0.0493,0.9624,-0.2137,0.145,-0.1069,0,0,0
-0.3035,0.0591,0.9739,-0.6641,0.6489,-0.1985,0,0,0
-0.3025,0.0557,0.9783,-1.2137,0.4733,-0.2061,0,0,0
-0.3025,0.0552,0.9785,-1.9847,-0.0916,-0.6031,0,0,0
-0.3135,0.0593,0.9697,-2.1679,-1.0153,-1.0382,0,0,0
-0.2983,0.0527,0.9773,-2.1908,-1.7557,-1.3206,0,0,0
-0.2991,0.0515,0.9751,-2.4962,-1.0,-1.0,0,0,0
-0.292,0.0398,0.9646,-1.7099,-0.8702,-1.3206,0,0,0
-0.2874,0.0466,0.9687,-0.5115,-0.5191,-0.0992,0,0,0
-0.2876,0.0444,0.9761,-0.1527,0.0611,0.3893,0,0,0
-0.3118,0.0559,0.979,-0.687,0.1069,0.8931,0,0,0
-0.3154,0.0547,0.9729,-0.3893,-0.7023,0.0992,0,0,0
-0.311,0.0569,0.9822,-1.0916,-1.1221,-0.7099,0,0,0
-0.3022,0.0535,0.9897,-2.0,-1.084,-0.4427,0,0,0
-0.3083,0.0508,0.9756,-2.1374,-1.1679,-1.0305,0,0,0
-0.3083,0.0535,0.97,-1.916,-1.4198,-1.1603,0,0,0
-0.301,0.0503,0.9722,-1.4351,-1.6107,-1.313,0,0,0
-0.2966,0.0557,0.9788,-1.374,-1.1298,-0.5573,0,0,0
-0.302,0.0491,0.9722,-0.9237,-0.4962,-0.1527,0,0,0
-0.3108,0.0535,0.979,-0.7328,-0.2672,-0.2519,0,0,0
-0.3113,0.0552,0.9854,-0.9847,-0.5573,-0.7863,0,0,0
-0.3137,0.0576,0.979,-1.9618,-1.2672,-0.9008,0,0,0
-0.3115,0.0535,0.9824,-2.3053,-1.5954,-1.6107,0,0,0
-0.301,0.043,0.9878,-1.8397,-1.626,-2.5954,0,0,0
-0.2913,0.0422,0.9788,-1.7557,-0.8473,-1.6031,0,0,0
-0.2922,0.0356,0.9863,-1.2672,-0.5649,-1.145,0,0,0
-0.2908,0.0413,0.9814,-0.8168,-0.145,-0.7176,0,0,0
-0.2979,0.0493,0.9832,-0.7023,0.1298,0.1756,0,0,0
-0.3096,0.0544,0.9849,-1.2977,-0.5038,0.313,0,0,0
-0.3169,0.0532,0.9922,-1.6718,-0.8168,0.1374,0,0,0
-0.3162,0.0564,0.9841,-1.8092,-1.0458,-0.7939,0,0,0
-0.3157,0.053,0.9741,-2.3817,-1.374,-0.8092,0,0,0
-0.3008,0.0454,0.9761,-2.0763,-1.3206,-1.145,0,0,0
-0.2964,0.0466,0.9758,-1.6565,-0.9237,-0.4351,0,0,0
-0.3042,0.043,0.979,-1.0534,-0.1985,-0.626,0,0,0
-0.3035,0.0522,0.9785,-0.9695,0.1527,-0.2595,0,0,0
-0.313,0.0542,0.9849,-1.7863,-0.5878,-0.2595,0,0,0
-0.3049,0.0552,0.9839,-1.9924,-1.0916,-0.5878,0,0,0
-0.3008,0.0515,0.9768,-2.2901,0.0076,-0.6794,0,0,0
-0.3057,0.054,0.9702,-2.0,0.0076,-0.4885,0,0,0
-0.302,0.0471,0.9724,-1.4122,-0.0153,-0.2366,0,0,0
-0.3132,0.0525,0.9807,-1.6489,-0.3435,-0.7634,0,0,0
-0.3025,0.0469,0.9856,-1.5344,-0.9466,-0.8168,0,0,0
-0.2896,0.0435,0.9832,-1.6565,-0.7786,-0.3359,0,0,0
-0.2896,0.0479,0.9824,-1.3817,-0.1756,-0.1145,0,0,0
-0.3,0.0508,0.9766,-1.6183,0.5038,0.0076,0,0,0
-0.302,0.052,0.9783,-1.3817,0.0153,-0.3893,0,0,0
-0.301,0.0537,0.9893,-1.3588,-0.4656,0.0382,0,0,0
-0.3057,0.051,0.9861,-1.8779,-0.1832,0.145,0,0,0
-0.3108,0.054,0.98,-2.0382,-0.0763,-0.3664,0,0,0
-0.3042,0.0488,0.9675,-1.5115,-0.0687,-0.3206,0,0,0
-0.3047,0.0591,0.9744,-1.3664,-0.0763,0.2366,0,0,0
-0.3083,0.0522,0.9824,-1.0611,-0.5115,-0.6031,0,0,0
-0.3062,0.0557,0.9888,-1.3511,-0.6489,-0.6794,0,0,0
-0.3071,0.0549,0.9927,-1.9695,-0.6641,-0.6031,0,0,0
-0.301,0.0574,0.9915,-2.6412,-0.855,-0.8473,0,0,0
-0.3079,0.0552,0.9771,-3.145,-1.3969,-0.771,0,0,0
-0.2983,0.0513,0.9714,-3.0153,-1.5038,-1.2366,0,0,0
-0.29,0.0449,0.9709,-2.2137,-1.0534,-0.9237,0,0,0
-0.2881,0.0515,0.9722,-1.8855,-0.3053,-0.0611,0,0,0
-0.292,0.0496,0.9753,-1.0534,0.2595,0.4198,0,0,0
-0.3015,0.0525,0.9771,-0.5802,0.8015,0.7328,0,0,0
-0.3198,0.0691,0.9854,-1.3053,-0.084,0.6107,0,0,0
-0.3259,0.0632,0.9797,-2.5115,-1.0076,-0.6718,0,0,0
-0.3225,0.0613,0.9795,-3.0076,-1.771,-1.6794,0,0,0
-0.3044,0.0583,0.9763,-2.7252,-1.6947,-2.1374,0,0,0
-0.2927,0.043,0.9653,-1.5115,-1.1298,-1.6794,0,0,0
-0.2925,0.0464,0.968,-0.313,-0.5573,-1.8397,0,0,0
-0.2788,0.0408,0.99,0.1603,0.1679,-0.9084,0,0,0
-0.2959,0.0483,0.988,-0.6107,0.3588,0.2061,0,0,0
-0.3147,0.05,0.9956,-1.5649,0.0382,-0.0076,0,0,0
-0.322,0.0613,0.9858,-2.6183,-1.4504,-0.5496,0,0,0
-0.314,0.0566,0.9883,-3.0687,-1.4046,-0.8931,0,0,0
-0.3135,0.0579,0.9795,-2.4504,-1.0763,-1.9771,0,0,0
-0.3066,0.0525,0.9807,-2.3435,-0.8473,-2.2214,0,0,0
-0.3054,0.0505,0.9795,-1.9847,-0.4733,-2.1527,0,0,0
-0.3,0.0464,0.9866,-2.0305,-0.4046,-1.3359,0,0,0
-0.3018,0.0457,0.9814,-2.5725,-0.1756,-1.0534,0,0,0
-0.3022,0.0454,0.9814,-2.2901,0.2366,-1.5649,0,0,0
-0.3,0.0442,0.9758,-2.5802,-0.2748,-1.374,0,0,0
-0.2925,0.041,0.9761,-2.8015,-0.7557,-0.7786,0,0,0
-0.2959,0.0474,0.968,-2.5267,-0.0687,-0.8092,0,0,0
-0.2988,0.0415,0.9683,-1.9542,-0.3435,-0.3893,0,0,0
-0.2998,0.0469,0.9658,-1.1832,-1.0458,-0.6794,0,0,0
-0.2915,0.0391,0.9773,-0.626,-0.8168,-0.2214,0,0,0
-0.2961,0.0435,0.9819,-0.4885,0.0,0.229,0,0,0
-0.2998,0.0491,0.9939,-1.084,0.5267,0.2443,0,0,0
-0.3059,0.0466,0.9851,-1.6947,-0.2901,0.2214,0,0,0
-0.3079,0.0491,0.9905,-2.7023,-0.7481,0.1832,0,0,0
-0.2986,0.0542,0.9827,-2.7634,-0.7023,-0.5344,0,0,0
-0.2996,0.0513,0.9714,-2.7557,-0.8244,-0.2137,0,0,0
-0.2991,0.0522,0.9727,-2.0458,-0.5038,-0.4733,0,0,0
-0.2986,0.0466,0.9741,-1.0458,0.1679,-0.5496,0,0,0
-0.2996,0.0508,0.9775,-0.6412,0.2672,0.0229,0,0,0
-0.3101,0.0601,0.9729,-1.3435,-0.3817,0.2061,0,0,0
-0.3113,0.0576,0.9846,-1.2595,-0.7405,-0.3511,0,0,0
-0.3118,0.0544,0.9836,-1.3359,-0.9618,-0.916,0,0,0
-0.3062,0.0527,0.9756,-1.4122,-0.9924,-0.7634,0,0,0
-0.3044,0.0505,0.9783,-1.4504,-0.9237,-1.0916,0,0,0
-0.3003,0.0535,0.9805,-1.5802,-1.3435,-1.0229,0,0,0
-0.2983,0.0444,0.9854,-1.2214,-1.0763,-1.084,0,0,0
-0.2864,0.0439,0.9929,-1.2366,-0.0687,-0.5038,0,0,0
-0.3035,0.0449,0.9915,-1.4427,0.6107,0.1756,0,0,0
-0.3,0.0479,0.9805,-1.8931,0.3282,-0.1985,0,0,0
-0.3027,0.0457,0.9812,-1.9542,-0.0305,0.229,0,0,0
-0.3037,0.0437,0.9807,-1.7176,0.4504,0.0992,0,0,0
-0.3062,0.0459,0.9788,-1.3206,0.8092,-0.9084,0,0,0
-0.3037,0.0491,0.9795,-1.1679,1.0992,-0.5191,0,0,0
-0.3083,0.0547,0.9807,-1.6718,0.2519,0.2672,0,0,0
-0.3035,0.0508,0.9851,-2.1298,0.3435,-0.5878,0,0,0
-0.3098,0.0581,0.9834,-2.4427,0.145,-0.542,0,0,0
-0.3059,0.0522,0.979,-2.4427,-0.0763,0.084,0,0,0
-0.3018,0.0554,0.9729,-2.4046,0.3053,0.1069,0,0,0
-0.3035,0.0479,0.9736,-1.9084,0.687,-0.2901,0,0,0
-0.2976,0.0503,0.9687,-1.7099,0.7481,0.1069,0,0,0
-0.3096,0.051,0.9687,-1.8092,0.2901,0.0916,0,0,0
-0.3125,0.054,0.9683,-1.5038,-0.2672,-0.9618,0,0,0
-0.3083,0.0527,0.9707,-1.4198,-0.5267,-1.2366,0,0,0
-0.3005,0.0564,0.9829,-1.7863,-0.2672,-1.2519,0,0,0
-0.3044,0.0593,0.98,-2.626,-1.1679,-0.8168,0,0,0
-0.3032,0.0537,0.9768,-2.3817,-1.3053,-1.5344,0,0,0
-0.2932,0.0508,0.9829,-2.3893,-0.7939,-0.9389,0,0,0
-0.2932,0.0474,0.9753,-1.5878,0.2901,-0.2595,0,0,0
-0.2991,0.0522,0.9795,-1.0458,1.0076,-0.0382,0,0,0
-0.3015,0.0557,0.9814,-0.9008,1.0229,0.1908,0,0,0
-0.3176,0.0593,0.9795,-1.5878,-0.3893,-0.5649,0,0,0
-0.3079,0.0576,0.9834,-1.9618,-1.2443,-1.6412,0,0,0
-0.3,0.061,0.9797,-3.2595,-1.1221,-1.1832,0,0,0
-0.2971,0.051,0.969,-3.0382,-1.4809,-1.0992,0,0,0
-0.3013,0.0513,0.9656,-2.3053,-1.229,-0.9542,0,0,0
-0.3018,0.0503,0.9563,-1.7405,-1.4275,-0.5115,0,0,0
-0.2998,0.0505,0.9648,-0.9237,-1.2061,-0.6718,0,0,0
-0.2998,0.0496,0.9749,-0.1756,-0.6565,-0.5878,0,0,0
-0.3,0.0544,0.9797,0.2214,-0.313,-0.5878,0,0,0
-0.3193,0.0579,0.9792,-0.2824,-0.7481,-1.2137,0,0,0
-0.313,0.0569,0.9863,-1.626,-2.0229,-1.4198,0,0,0
-0.3088,0.0508,0.9949,-2.1527,-2.4504,-2.145,0,0,0
-0.2932,0.0471,0.9866,-3.1679,-2.2214,-1.9847,0,0,0
-0.2915,0.0322,0.9827,-2.5038,-1.3893,-1.0458,0,0,0
-0.2964,0.0403,0.98,-1.6489,-0.6489,-1.0992,0,0,0
-0.3052,0.0461,0.9805,-1.0534,-0.145,-0.3893,0,0,0
-0.3137,0.0488,0.9702,-1.6489,-1.084,-0.4733,0,0,0
-0.3198,0.0505,0.9736,-1.5496,-1.4122,-1.0382,0,0,0
-0.3252,0.0449,0.978,-1.4122,-1.2214,-1.1756,0,0,0
-0.3047,0.0447,0.9897,-1.3282,-0.8855,-2.2977,0,0,0
-0.2966,0.0361,0.9883,-1.458,-0.0076,-2.0229,0,0,0
-0.2917,0.0383,0.9919,-2.5038,0.229,-1.4504,0,0,0
-0.2944,0.031,0.9797,-2.5725,-0.1756,-1.3359,0,0,0
-0.2935,0.0266,0.9722,-2.0229,-2.0763,-0.5954,0,0,0
-0.2671,0.0181,1.0012,-0.313,-0.0687,1.3664,0,0,0
-0.2932,0.0427,0.9956,-1.4046,3.3053,2.8168,0,0,0
-0.3337,0.0549,0.9753,-1.3053,1.7176,2.6947,0,0,0
-0.3337,0.0559,0.9739,-1.1985,-0.7252,0.9924,0,0,0
-0.3145,0.0537,0.9939,-1.3053,-0.9237,0.2519,0,0,0
-0.3035,0.0522,1.0049,-1.2748,1.542,0.3282,0,0,0
-0.3203,0.0667,0.9934,-1.6183,2.2137,-0.0611,0,0,0
-0.323,0.0657,0.9924,-2.3511,0.6183,-0.6336,0,0,0
-0.3154,0.063,0.9946,-3.3969,-0.374,-1.4046,0,0,0
-0.314,0.0632,0.9873,-4.2214,-0.2443,-1.6565,0,0,0
-0.3059,0.0566,0.97,-4.4504,0.3206,-2.3282,0,0,0
-0.304,0.0476,0.9573,-3.9847,-0.2519,-2.0076,0,0,0
-0.2861,0.041,0.9622,-2.9466,-0.8931,-1.7634,0,0,0
-0.2722,0.0403,0.9668,-1.4122,0.5725,-0.9771,0,0,0
-0.2866,0.0454,0.9692,-1.1985,1.1908,-0.0916,0,0,0
-0.2969,0.0532,0.97,-2.1908,0.9008,0.4809,0,0,0
-0.313,0.0503,0.9561,-3.0916,-0.5878,-0.4351,0,0,0
-0.2981,0.0459,0.9648,-2.9389,-1.5115,-1.1756,0,0,0
-0.2849,0.0396,0.96,-2.0229,-1.0763,-0.9924,0,0,0
-0.2781,0.0425,0.9644,-1.2366,-0.5802,0.3053,0,0,0
-0.2942,0.0459,0.967,-0.2672,-0.0458,0.8321,0,0,0
-0.3052,0.0608,0.9778,0.5115,-0.313,1.1374,0,0,0
-0.312,0.0627,0.9971,0.1832,-0.8473,1.1832,0,0,0
-0.3225,0.0708,0.9995,-0.9237,-0.5573,0.1985,0,0,0
-0.3267,0.0764,1.001,-2.3664,-1.3588,-1.1374,0,0,0
-0.3145,0.0671,0.9917,-3.6183,-2.0611,-1.8015,0,0,0
-0.3005,0.0471,0.9744,-3.626,-1.0611,-2.3511,0,0,0
-0.302,0.0391,0.9612,-1.5115,-0.3435,-1.2443,0,0,0
-0.3047,0.0503,0.9656,-0.6794,-0.6718,-0.0687,0,0,0
-0.3264,0.0508,0.9687,-0.7557,-1.145,-1.0305,0,0,0
-0.3206,0.0486,0.9817,-1.2901,-2.2137,-2.542,0,0,0
-0.3071,0.0474,0.9863,-2.1985,-1.9084,-2.3282,0,0,0
-0.3013,0.0308,0.9832,-2.7252,-2.6412,-2.2977,0,0,0
-0.2883,0.0325,0.9929,-2.5267,-1.855,-1.145,0,0,0
-0.2827,0.0295,0.9822,-2.3588,-1.2748,-0.6565,0,0,0
-0.2886,0.0327,0.9861,-2.2061,-0.916,-0.1298,0,0,0
-0.2942,0.031,0.9736,-1.3893,-0.2595,0.2519,0,0,0
-0.2969,0.0388,0.9822,-1.0916,0.1221,0.4885,0,0,0
-0.3013,0.0408,0.9827,-0.916,0.7023,0.4733,0,0,0
-0.3005,0.0442,0.9917,-0.6718,0.9847,0.9542,0,0,0
-0.3167,0.0547,0.9932,-1.5115,0.855,0.6031,0,0,0
-0.3215,0.0691,0.9812,-3.1832,-0.8473,0.3359,0,0,0
-0.3162,0.0576,0.9758,-3.6183,-1.9008,-0.2366,0,0,0
-0.313,0.0469,0.9814,-4.3664,-0.8855,-0.1679,0,0,0
-0.325,0.0718,0.9399,-6.1908,-0.5802,-3.2214,0,0,0
-0.3162,0.03,0.9258,-3.4733,-7.1679,-4.2519,0,0,0
-0.2319,0.0125,0.9814,0.1527,-4.0763,-1.2595,0,0,0
-0.2498,0.0229,0.9966,2.0305,3.916,1.8779,0,0,0
-0.2954,0.0427,0.9805,2.1679,3.9313,4.6336,0,0,0
-0.333,0.0576,0.9893,2.0687,0.7252,4.1832,0,0,0
-0.3374,0.0742,1.0132,0.2672,-0.2977,1.2901,0,0,0
-0.3323,0.0647,1.0259,-1.3969,0.313,-0.1527,0,0,0
-0.3303,0.0671,1.0112,-2.8244,0.7405,-1.3588,0,0,0
-0.3313,0.074,0.9934,-4.7557,-0.4962,-2.1756,0,0,0
-0.3076,0.054,0.9924,-5.6947,-1.9847,-3.7099,0,0,0
-0.2852,0.0474,0.9744,-5.4809,-1.4504,-3.5344,0,0,0
-0.2917,0.0454,0.9592,-5.1832,-1.1908,-1.771,0,0,0
-0.2878,0.0354,0.9495,-3.2061,-0.7023,-1.0305,0,0,0
-0.2937,0.0439,0.9529,-2.4885,-0.0382,-0.7863,0,0,0
-0.2913,0.0422,0.948,-1.313,-0.0229,-0.3588,0,0,0
-0.2959,0.0496,0.9453,-0.6794,0.5267,-0.1756,0,0,0
-0.3003,0.0398,0.9478,-0.2214,-0.3359,-0.5573,0,0,0
-0.2966,0.0405,0.96,0.4733,-1.6107,-0.7328,0,0,0
-0.292,0.0349,0.9778,0.3664,-1.4733,-1.1832,0,0,0
-0.2813,0.0308,0.9915,-0.1832,-1.5344,-0.4275,0,0,0
-0.2751,0.033,0.9937,-0.1679,-0.7023,0.9389,0,0,0
-0.2888,0.04,1.0042,-0.5649,-0.374,2.4198,0,0,0
-0.2979,0.051,1.0071,-1.1832,0.4198,3.3664,0,0,0
-0.3188,0.0615,1.0068,-1.4427,1.7328,2.7252,0,0,0
-0.3335,0.0708,0.9915,-2.1298,2.084,1.8626,0,0,0
-0.3506,0.0818,0.9812,-2.8702,0.313,0.145,0,0,0
-0.342,0.072,0.9773,-4.1679,-1.0611,-1.6107,0,0,0
-0.3357,0.0603,0.9763,-3.8702,-1.145,-3.2214,0,0,0
-0.3201,0.0515,0.9614,-3.4351,-1.0153,-4.4046,0,0,0
-0.2959,0.0447,0.9724,-2.5115,-1.4275,-4.8321,0,0,0
-0.2815,0.0325,0.9724,-2.4809,-0.9924,-3.626,0,0,0
-0.2742,0.0242,0.98,-1.8702,0.0,-2.0382,0,0,0
-0.2813,0.032,0.9839,-1.8168,0.2519,-0.8397,0,0,0
-0.2981,0.0334,0.9839,-2.2672,0.1603,-0.1679,0,0,0
-0.3062,0.0425,0.9775,-3.1298,-0.313,-0.6641,0,0,0
-0.2979,0.0386,0.9746,-3.3588,-0.7023,-0.542,0,0,0
-0.2974,0.0396,0.9641,-2.4351,-0.4656,-0.7176,0,0,0
-0.2839,0.0361,0.9678,-1.2214,-0.0229,-0.6489,0,0,0
-0.2871,0.05,0.9824,-0.8855,0.7557,0.0153,0,0,0
-0.291,0.0498,0.9832,-0.8244,0.2214,0.5649,0,0,0
-0.2937,0.0554,0.9956,-1.0763,0.2366,0.8626,0,0,0
-0.3052,0.0598,0.9871,-2.6183,0.0229,1.0153,0,0,0
-0.3071,0.0596,0.9783,-2.9313,-0.8244,0.9924,0,0,0
-0.3152,0.0586,0.9661,-2.1145,-0.0916,0.7023,0,0,0
-0.3237,0.0659,0.9587,-1.145,0.0153,-0.2366,0,0,0
-0.3171,0.0588,0.9524,-0.0534,-0.1221,-1.3969,0,0,0
-0.3098,0.0559,0.9775,-0.1756,-0.5954,-0.8702,0,0,0
-0.3108,0.0581,0.9832,-0.5496,-0.2137,-0.9466,0,0,0
-0.3164,0.0552,0.9719,-1.7252,-0.5191,-0.771,0,0,0
-0.3252,0.0603,0.9761,-2.6489,-1.8168,-1.6412,0,0,0
-0.3276,0.051,0.9631,-3.0,-3.7252,-2.9847,0,0,0
-0.2925,0.0339,0.9761,-2.7328,-3.1603,-3.2595,0,0,0
-0.2798,0.0208,0.9792,-1.0916,-0.7481,-2.0076,0,0,0
-0.2791,0.0234,0.9851,0.5191,0.1832,-0.6412,0,0,0
-0.2844,0.0291,0.9932,0.7023,0.9695,0.3664,0,0,0
-0.3022,0.0376,1.0015,-0.3282,0.9847,0.5038,0,0,0
-0.3076,0.0454,0.9951,-1.6718,0.5954,1.313,0,0,0
-0.3186,0.0442,0.9915,-2.3588,-0.0382,0.6565,0,0,0
-0.3179,0.0464,0.9802,-2.4351,-0.1221,-0.3282,0,0,0
-0.3147,0.0454,0.9817,-2.1145,-0.5802,-0.4885,0,0,0
-0.3108,0.0476,0.9836,-2.374,-0.3206,-0.542,0,0,0
-0.3074,0.0442,0.9773,-1.6947,0.3359,-0.4427,0,0,0
-0.303,0.0483,0.9766,-1.2519,1.3664,-0.3206,0,0,0
-0.311,0.0527,0.9712,-1.9695,1.0,-0.4733,0,0,0
-0.3147,0.0588,0.9753,-2.2672,-0.6412,-0.4656,0,0,0
-0.3096,0.0542,0.9736,-2.5802,-1.2061,-1.0916,0,0,0
-0.3083,0.0576,0.9724,-2.5191,-0.4351,-1.2519,0,0,0
-0.3035,0.0571,0.9731,-2.2824,-0.771,-1.542,0,0,0
-0.2961,0.0508,0.9661,-1.4962,-1.542,-1.9847,0,0,0
-0.2915,0.0454,0.9763,-1.3206,-1.2366,-1.626,0,0,0
-0.2803,0.0457,0.9812,-0.9466,-0.0687,-0.7786,0,0,0
-0.2959,0.0439,0.9761,-0.9313,0.4275,-0.4885,0,0,0
-0.303,0.0579,0.9771,-1.2824,-0.5496,-0.3206,0,0,0
-0.304,0.0522,0.9783,-1.4962,-0.9313,-0.6641,0,0,0
-0.3062,0.052,0.978,-1.7023,-1.0382,-0.6947,0,0,0
-0.3086,0.0515,0.9768,-1.8626,-0.8702,-0.5725,0,0,0
-0.3108,0.0542,0.9758,-2.3511,-1.2519,-0.6641,0,0,0
-0.2998,0.0447,0.9714,-1.8092,-1.3053,-0.6183,0,0,0
-0.3035,0.0437,0.9778,-1.3817,-1.2519,-0.4122,0,0,0
-0.3071,0.0466,0.9697,-0.9695,-0.9618,-0.084,0,0,0
-0.3088,0.0471,0.9792,-0.8702,-1.4733,-0.3817,0,0,0
-0.3093,0.0486,0.9846,-0.9313,-1.0992,-0.8473,0,0,0
-0.3147,0.05,0.9888,-1.0763,-1.4885,-1.5344,0,0,0
-0.301,0.0537,0.9895,-1.7099,-1.0992,-1.458,0,0,0
-0.3018,0.0479,0.9912,-2.4198,-1.1145,-1.7252,0,0,0
-0.3008,0.042,0.9873,-2.4733,-1.3282,-1.7405,0,0,0
-0.2988,0.0469,0.9802,-2.6183,-1.0458,-1.3664,0,0,0
-0.3054,0.0466,0.9844,-2.3053,-1.0,-1.6107,0,0,0
-0.3093,0.0508,0.9761,-2.5649,-1.1221,-2.0305,0,0,0
-0.3022,0.0488,0.9841,-2.8931,-1.8779,-1.4885,0,0,0
-0.2971,0.0486,0.9719,-2.4885,-1.4885,-1.7099,0,0,0
-0.2971,0.0479,0.979,-1.9389,-1.0076,-1.229,0,0,0
-0.3103,0.0505,0.969,-1.7176,-1.0305,-1.5573,0,0,0
-0.3103,0.0444,0.9758,-1.7863,-1.9542,-2.374,0,0,0
-0.3013,0.0464,0.9778,-1.9847,-1.6565,-2.3053,0,0,0
-0.2981,0.0454,0.9802,-2.2901,-2.0,-1.542,0,0,0
-0.2849,0.0383,0.9885,-1.9847,-1.5573,-0.9924,0,0,0
-0.2874,0.0381,0.9841,-1.771,0.1221,0.313,0,0,0
-0.2986,0.0413,0.981,-1.5725,0.6718,1.0916,0,0,0
-0.3188,0.0581,0.9814,-2.0382,-0.0611,0.8473,0,0,0
-0.3362,0.0623,0.9641,-2.0382,-1.3893,-0.9237,0,0,0
-0.3108,0.0547,0.9766,-2.3053,-1.6107,-2.5115,0,0,0
-0.3037,0.0447,0.9792,-1.9008,-0.9466,-2.8473,0,0,0
-0.2966,0.0366,0.9827,-1.145,-0.4962,-2.5038,0,0,0
-0.293,0.0352,0.9888,-1.1603,-0.5267,-1.9008,0,0,0
-0.2898,0.0342,0.9939,-1.3206,-0.2901,-1.2366,0,0,0
-0.3057,0.041,0.9905,-1.5649,-0.2977,-0.8092,0,0,0
-0.3054,0.0386,0.9927,-2.7176,-1.0229,-0.5725,0,0,0
-0.3047,0.0413,0.9878,-3.687,-1.0763,-0.7481,0,0,0
-0.3096,0.0376,0.9753,-3.4733,-1.0305,-0.855,0,0,0
-0.2993,0.0327,0.9727,-2.9084,-1.0611,-0.5038,0,0,0
-0.2927,0.0308,0.9785,-2.1221,0.5496,-0.3359,0,0,0
-0.2913,0.0354,0.9775,-0.8092,1.2366,0.4656,0,0,0
-0.2942,0.0408,0.9824,-0.1679,1.4046,0.5649,0,0,0
-0.3066,0.0518,0.9895,-0.5496,1.2977,0.8473,0,0,0
-0.3091,0.0503,0.9932,-1.6489,0.7328,-0.145,0,0,0
-0.303,0.0522,0.9866,-3.3588,0.2519,0.2595,0,0,0
-0.304,0.0532,0.9695,-3.8321,-0.084,0.1603,0,0,0
-0.3127,0.0547,0.9541,-3.3969,-0.4885,-0.0611,0,0,0
-0.3062,0.0566,0.9597,-2.4427,-0.8702,-0.4427,0,0,0
-0.2986,0.0496,0.9675,-1.0992,0.0534,-0.771,0,0,0
-0.3064,0.0627,0.9751,-0.7863,0.5573,-0.7023,0,0,0
-0.311,0.0552,0.9829,-0.8015,-0.4122,-1.5725,0,0,0
-0.3059,0.0659,0.9885,-1.9008,-0.4046,-1.8397,0,0,0
-0.3018,0.0542,0.9902,-3.2443,-1.4122,-2.1756,0,0,0
-0.2996,0.0471,0.9817,-4.4351,-2.1527,-2.2824,0,0,0
-0.2937,0.0442,0.9717,-4.4809,-2.5038,-2.6107,0,0,0
-0.2788,0.0361,0.9629,-3.2214,-2.3206,-2.3588,0,0,0
-0.2815,0.0376,0.9609,-1.8397,-1.1679,-1.2595,0,0,0
-0.2908,0.0349,0.9609,0.2137,-0.4351,-0.6641,0,0,0
-0.3042,0.0388,0.9714,0.8015,-0.5954,-0.4504,0,0,0
-0.3108,0.0549,0.9844,-0.3588,-0.9389,-0.3969,0,0,0
-0.3306,0.0474,0.9727,-1.9389,-1.4198,-2.3969,0,0,0
-0.3154,0.0415,0.9739,-1.4275,-3.7328,-2.3817,0,0,0
-0.2922,0.0222,0.9946,-1.1832,-3.1221,-1.8397,0,0,0
-0.2913,0.0325,1.0,-1.6183,-0.4504,-0.9847,0,0,0
-0.3088,0.0259,1.0061,-1.7176,0.8015,-0.7328,0,0,0
-0.3159,0.0298,1.0015,-2.8092,-0.8855,-0.6183,0,0,0
-0.2998,0.0471,0.9944,-6.0382,-4.5954,0.1069,0,0,0
-0.2844,0.0059,0.981,-3.1374,-1.3053,0.6947,0,0,0
-0.302,0.0195,0.9919,1.0458,2.9847,1.6107,0,0,0
-0.3279,0.0525,1.0063,0.0763,3.7328,1.5725,0,0,0
-0.3455,0.0537,0.9939,-1.1145,1.0916,0.3282,0,0,0
-0.3298,0.0454,1.0107,-1.6412,0.1603,-1.5344,0,0,0
-0.3079,0.0466,1.0129,-3.2672,0.9389,-1.7786,0,0,0
-0.312,0.0432,0.9971,-5.3359,0.7557,-1.6641,0,0,0
-0.3018,0.0383,0.9766,-5.7023,-0.2214,-1.7023,0,0,0
-0.2859,0.0344,0.9683,-5.1679,-0.3206,-1.0916,0,0,0
-0.2798,0.031,0.9612,-4.5725,0.9847,-0.2977,0,0,0
-0.2925,0.0366,0.9395,-3.4275,1.5115,0.7176,0,0,0
-0.2964,0.0371,0.9409,-1.3359,0.9008,0.2824,0,0,0
-0.2866,0.0408,0.9612,-0.374,1.0382,0.6336,0,0,0
-0.2825,0.0457,0.9692,0.229,1.8473,1.0763,0,0,0
-0.2971,0.0515,0.9746,-0.687,1.458,0.6794,0,0,0
-0.3044,0.0562,0.9839,-1.0916,0.145,0.2443,0,0,0
-0.3054,0.0564,0.9773,-1.916,-1.0916,0.0534,0,0,0
-0.2903,0.0583,0.9802,-2.3435,-1.0,0.0458,0,0,0
-0.2993,0.0525,0.9751,-1.6794,-0.771,0.0458,0,0,0
-0.3079,0.0623,0.9724,-1.3206,-1.0153,-0.0687,0,0,0
-0.3083,0.0593,0.9827,-1.3359,-1.4198,-0.6565,0,0,0
-0.3074,0.0535,0.98,-1.4656,-0.9008,-0.855,0,0,0
-0.314,0.0632,0.9797,-1.9771,-1.4733,-1.7786,0,0,0
-0.3098,0.0518,0.9731,-1.9847,-2.3893,-2.145,0,0,0
-0.3044,0.0437,0.9712,-1.6412,-1.9847,-2.4809,0,0,0
-0.3027,0.043,0.9631,-1.5573,-2.0382,-1.7023,0,0,0
-0.3015,0.0369,0.9663,-1.0,-1.5038,-1.3435,0,0,0
-0.3154,0.0303,0.979,-0.313,-1.7023,-1.7863,0,0,0
-0.3118,0.0378,0.9692,-0.9542,-2.7405,-2.1298,0,0,0
-0.2915,0.0269,0.9846,-1.0382,-2.8244,-2.3969,0,0,0
-0.2881,0.0215,0.9939,-0.5267,-2.0,-1.4122,0,0,0
-0.2805,0.0212,0.9966,-0.7176,-0.8779,0.0153,0,0,0
-0.2993,0.0298,0.99,-0.8397,-0.0763,0.5878,0,0,0
-0.3049,0.0344,0.9932,-1.6794,0.2824,0.8702,0,0,0
-0.3137,0.042,0.9878,-2.7252,0.1145,0.6031,0,0,0
-0.3198,0.0471,0.9824,-3.8397,-0.916,0.458,0,0,0
-0.3147,0.0342,0.9675,-3.4122,-1.4351,-0.8168,0,0,0
-0.3013,0.0332,0.9766,-2.2748,-1.458,-0.5878,0,0,0
-0.2974,0.0342,0.9719,-1.3053,-0.1832,-0.3359,0,0,0
-0.2944,0.0337,0.9888,-0.2214,0.5573,-0.0763,0,0,0
-0.3022,0.0444,0.9949,0.3511,1.0,0.6947,0,0,0
-0.3071,0.0444,1.0049,-0.3511,0.5496,0.6947,0,0,0
-0.3113,0.0535,1.0146,-1.3588,1.2214,0.4122,0,0,0
-0.3232,0.0542,1.0007,-2.9542,0.4046,-0.1985,0,0,0
-0.3213,0.0544,0.9817,-4.0992,-0.7786,-1.2519,0,0,0
-0.3127,0.0508,0.9768,-4.2748,-0.8321,-2.2443,0,0,0
-0.302,0.0464,0.9644,-4.145,-1.2595,-1.9466,0,0,0
-0.283,0.0356,0.9585,-3.5802,-0.9695,-1.9618,0,0,0
-0.2751,0.0313,0.9524,-2.1756,-0.2977,-1.7939,0,0,0
-0.2678,0.0269,0.9658,-0.9771,0.6718,-0.2137,0,0,0
-0.2888,0.0435,0.9709,-0.458,1.3969,0.7481,0,0,0
-0.2988,0.0498,0.9729,-0.8244,0.1679,1.1374,0,0,0
-0.3071,0.051,0.9685,-1.8092,-0.7786,0.2977,0,0,0
-0.3118,0.0488,0.9692,-1.9924,-1.4122,-0.229,0,0,0
-0.3101,0.0527,0.9561,-2.5725,-1.7557,-0.7863,0,0,0
-0.3108,0.0344,0.9526,-2.0076,-3.374,-2.2519,0,0,0
-0.2725,0.0254,0.9739,0.4885,-2.4351,-1.374,0,0,0
-0.2744,0.0325,0.9954,0.5878,1.0382,0.3969,0,0,0
-0.3059,0.0488,0.9856,0.1679,1.4351,1.6183,0,0,0
-0.3381,0.0527,0.9944,-0.4351,-0.6641,1.084,0,0,0
-0.3276,0.053,1.0085,-1.7786,-1.2519,-0.8626,0,0,0
-0.3186,0.0522,1.0093,-3.0992,-0.9008,-1.2443,0,0,0
-0.3184,0.0415,0.9883,-3.8244,-1.0229,-1.374,0,0,0
-0.3147,0.043,0.9841,-3.4427,-1.9313,-2.0,0,0,0
-0.2996,0.0308,0.9856,-2.9466,-1.8855,-2.0382,0,0,0
-0.2937,0.0361,0.9783,-1.7939,0.4351,-1.2824,0,0,0
-0.2991,0.0369,0.9763,-2.0382,1.2137,-0.5878,0,0,0
-0.3081,0.0417,0.9795,-2.313,0.6107,-1.1527,0,0,0
-0.3018,0.0366,0.9829,-2.542,-0.3893,-1.4275,0,0,0
-0.2974,0.0425,0.9753,-2.8855,-0.1679,-1.2214,0,0,0
-0.2969,0.0356,0.9695,-3.0763,-0.8015,-1.1603,0,0,0
-0.2878,0.0376,0.9626,-2.8779,-0.8855,-1.1374,0,0,0
-0.2888,0.033,0.9663,-2.3969,-0.8092,-0.8931,0,0,0
-0.2847,0.0256,0.958,-1.1908,-0.4656,-0.0153,0,0,0
-0.2834,0.03,0.9707,-0.1908,0.2443,0.6641,0,0,0
-0.2913,0.0332,0.9817,0.313,0.2977,1.2977,0,0,0
-0.3022,0.0378,0.9775,0.2901,0.6641,1.0687,0,0,0
-0.3142,0.0454,0.9863,0.2901,0.5725,0.8855,0,0,0
-0.3181,0.0525,0.9919,-0.2137,-0.3282,0.5878,0,0,0
-0.3269,0.0491,1.0022,-0.8015,-0.9237,0.0,0,0,0
-0.3113,0.0449,0.9993,-1.7023,-1.7481,-0.145,0,0,0
-0.3076,0.043,0.9993,-2.6412,-1.2137,-0.2672,0,0,0
-0.3098,0.0439,0.9912,-2.771,-0.9008,-0.1603,0,0,0
-0.3157,0.0415,0.9897,-2.7252,-0.6718,-1.0229,0,0,0
-0.3074,0.0432,0.9829,-2.9466,-0.5954,-0.7863,0,0,0
-0.3105,0.04,0.9856,-3.1298,-0.3511,-1.2137,0,0,0
-0.2959,0.0305,0.9656,-2.1221,-0.1908,-1.2061,0,0,0
-0.292,0.0298,0.9661,-1.3511,0.6794,-0.4046,0,0,0
-0.2942,0.0313,0.969,-0.8855,0.7939,0.2061,0,0,0
-0.3027,0.0447,0.9746,-1.1374,0.7939,0.145,0,0,0
-0.314,0.0405,0.9888,-1.7176,-0.5344,-0.1069,0,0,0
-0.2959,0.0505,0.9861,-2.7939,-0.458,-0.2366,0,0,0
-0.3015,0.0435,0.9775,-2.9924,-0.3359,-0.542,0,0,0
-0.2844,0.0413,0.9751,-2.3435,-0.458,-0.6336,0,0,0
-0.2927,0.0459,0.9812,-1.7863,-0.0763,-0.7405,0,0,0
-0.2961,0.0479,0.9734,-2.1985,-0.0916,-0.4275,0,0,0
-0.2947,0.0452,0.9839,-2.1832,-0.5344,-0.4427,0,0,0
-0.3081,0.0542,0.9736,-2.0382,-0.7557,-0.7481,0,0,0
-0.3027,0.0537,0.9666,-2.0687,-1.0458,-0.7863,0,0,0
-0.3091,0.0544,0.9663,-1.9771,-1.1908,-1.1069,0,0,0
-0.3127,0.0476,0.9617,-1.4504,-1.8702,-1.9389,0,0,0
-0.2969,0.04,0.9741,-0.2137,-2.1985,-2.458,0,0,0
-0.2886,0.0386,0.9731,-0.1374,-1.0534,-1.4656,0,0,0
-0.3042,0.0396,0.9812,-0.0611,-1.7099,-1.145,0,0,0
-0.3027,0.0366,0.9858,-0.1908,-2.0076,-1.3969,0,0,0
-0.3005,0.042,1.0022,-1.2748,-1.3664,-1.1221,0,0,0
-0.3022,0.0383,0.9905,-2.7557,-1.0611,-0.2901,0,0,0
-0.3108,0.0398,0.9683,-3.2595,-1.7863,-0.5115,0,0,0
-0.3145,0.0322,0.9634,-2.2977,-2.0992,-0.4351,0,0,0
-0.3049,0.0359,0.9685,-1.2901,-1.9466,-1.626,0,0,0
-0.2974,0.0273,0.9719,0.0153,-1.2748,-2.0076,0,0,0
-0.2908,0.0232,0.9846,1.542,-0.1603,-1.0534,0,0,0
-0.2893,0.0271,1.0066,1.3511,0.7328,-0.1756,0,0,0
-0.2964,0.0317,1.0173,0.4885,1.1985,0.3511,0,0,0
-0.302,0.0347,1.0293,-1.1527,1.2977,0.7786,0,0,0
-0.3142,0.0471,1.0229,-3.0763,1.4275,0.6641,0,0,0
-0.3262,0.0498,1.0071,-5.1298,0.4198,0.0305,0,0,0
-0.3188,0.0481,0.9834,-5.9008,-0.7328,-1.2595,0,0,0
-0.3057,0.0464,0.9602,-5.1221,-0.9008,-2.2519,0,0,0
-0.2898,0.0359,0.9548,-3.4427,0.0153,-1.8015,0,0,0
-0.2869,0.0334,0.9534,-1.1603,1.4198,-0.7634,0,0,0
-0.2893,0.0361,0.947,-0.0992,1.8244,0.2519,0,0,0
-0.3022,0.0466,0.9624,0.0534,1.0534,0.1603,0,0,0
-0.3096,0.0479,0.9709,-0.687,0.0229,0.2595,0,0,0
-0.3013,0.0488,0.9866,-1.7099,-0.916,0.0153,0,0,0
-0.2976,0.0508,0.9827,-2.1069,-1.1221,-0.0916,0,0,0
-0.2947,0.0442,0.979,-1.916,-0.5191,-0.458,0,0,0
-0.293,0.0464,0.9829,-1.2061,-0.1069,-0.3893,0,0,0
-0.2944,0.0452,0.9885,-1.0153,0.3664,-0.0763,0,0,0
-0.312,0.0547,0.9863,-1.1832,0.1145,-0.2977,0,0,0
-0.3193,0.0613,0.9788,-2.0458,-0.7863,-1.5191,0,0,0
-0.3164,0.05,0.9875,-3.2901,-1.9695,-2.3511,0,0,0
-0.3052,0.0498,0.9771,-4.0229,-2.458,-2.8855,0,0,0
-0.2925,0.0361,0.9683,-3.8626,-2.1374,-2.3435,0,0,0
-0.2822,0.031,0.9587,-2.4122,-1.687,-1.9542,0,0,0
-0.2866,0.0293,0.9614,-0.9847,-0.855,-1.0305,0,0,0
-0.2852,0.032,0.9702,0.0076,-0.3359,0.2672,0,0,0
-0.302,0.0376,0.9775,0.229,0.2824,0.0916,0,0,0
-0.311,0.0391,0.9832,-0.0458,-0.1985,-0.0916,0,0,0
-0.322,0.0383,0.9814,-0.4504,-0.5496,-0.084,0,0,0
-0.3223,0.0435,0.9839,-1.0458,-2.0153,-1.2443,0,0,0
-0.3057,0.0313,1.0081,-0.4962,-2.0153,-1.9771,0,0,0
-0.2944,0.0349,1.0073,-1.0305,-0.6947,-0.9466,0,0,0
-0.3079,0.0342,1.012,-1.3511,0.5191,-0.7328,0,0,0
-0.3074,0.0327,1.0015,-1.9008,0.1221,-0.542,0,0,0
-0.3091,0.0383,0.9985,-2.9542,0.1527,-0.3359,0,0,0
-0.3071,0.0342,0.9907,-3.5649,0.3435,-0.8092,0,0,0
-0.304,0.0334,0.9724,-3.7634,0.3435,-0.9008,0,0,0
-0.2991,0.0283,0.9653,-3.2061,-0.2748,-0.9084,0,0,0
-0.2971,0.0308,0.9624,-2.4427,0.1832,-1.145,0,0,0
-0.3,0.031,0.9653,-1.9466,-0.2824,-0.2137,0,0,0
-0.2949,0.0356,0.9727,-1.6718,0.0687,-0.374,0,0,0
-0.2952,0.0366,0.9756,-1.5649,0.0687,0.2137,0,0,0
-0.2883,0.0383,0.9915,-1.1756,0.5649,0.8855,0,0,0
-0.2976,0.043,0.9883,-0.8473,2.0382,1.5038,0,0,0
-0.3188,0.0559,0.9871,-1.5573,1.7328,1.3206,0,0,0
-0.3152,0.0591,0.9851,-2.5649,0.4504,0.5573,0,0,0
-0.3164,0.0562,0.9858,-3.2443,-0.1374,-0.5344,0,0,0
-0.3044,0.054,0.9714,-3.2977,-0.0916,-1.313,0,0,0
-0.2971,0.0435,0.9651,-3.2214,0.3282,-1.1221,0,0,0
-0.2991,0.0444,0.9551,-2.4122,-0.3588,-1.3893,0,0,0
-0.2922,0.0369,0.9631,-1.5954,-0.2061,-1.0687,0,0,0
-0.2935,0.0393,0.9758,-1.4351,0.2519,-0.0763,0,0,0
-0.3027,0.0432,0.9663,-1.0992,0.2214,0.0153,0,0,0
-0.3047,0.0422,0.9761,-0.6489,-0.0229,-0.6565,0,0,0
-0.3037,0.0488,0.9749,-0.9466,-0.3969,-0.4122,0,0,0
-0.3057,0.0403,0.9802,-1.4962,-0.4733,-0.5038,0,0,0
-0.3015,0.04,0.9758,-1.4275,-1.5954,-1.1756,0,0,0
-0.292,0.0361,0.9797,-0.9466,-1.5038,-0.9618,0,0,0
-0.2949,0.0408,0.9924,-1.2901,-0.9847,-0.0916,0,0,0
-0.304,0.0415,0.9868,-1.7634,-0.7405,-0.1298,0,0,0
-0.3069,0.0452,0.9849,-2.1832,-0.6031,-0.5496,0,0,0
-0.3123,0.0481,0.9851,-2.5725,-0.3435,-0.8855,0,0,0
-0.3137,0.0457,0.9727,-3.1756,-0.9084,-0.8931,0,0,0
-0.3135,0.0457,0.958,-3.4351,-1.3664,-0.6947,0,0,0
-0.3125,0.0427,0.9495,-2.3282,-1.687,-1.5496,0,0,0
-0.302,0.0403,0.9587,-1.0916,-1.6336,-1.8015,0,0,0
-0.3018,0.0364,0.9731,-0.0382,-1.4885,-1.8855,0,0,0
-0.2937,0.0317,0.9873,0.7176,-0.8779,-1.1603,0,0,0
-0.2969,0.0371,0.9976,0.2366,0.0611,-0.7786,0,0,0
-0.3083,0.0332,1.0056,-0.5038,-0.6031,-0.8931,0,0,0
-0.3035,0.0359,1.0039,-1.9466,-1.1527,-0.2519,0,0,0
-0.302,0.0374,0.9927,-2.5954,-0.6947,-0.5649,0,0,0
-0.3044,0.0371,0.9856,-2.7176,-0.4198,-0.2824,0,0,0
-0.3101,0.0327,0.979,-2.5573,-0.6718,-0.6947,0,0,0
-0.3101,0.0376,0.9744,-2.0458,-0.2901,-1.4046,0,0,0
-0.302,0.0354,0.9819,-2.3511,-0.6183,-1.4962,0,0,0
-0.2866,0.0356,0.9824,-3.4198,-1.6794,-0.7023,0,0,0
-0.2964,0.0276,0.9697,-2.4275,-0.9237,0.0763,0,0,0
-0.2991,0.0344,0.9756,-1.3053,0.1985,0.1832,0,0,0
-0.3096,0.0383,0.9661,-1.5573,-0.3511,0.5191,0,0,0
-0.313,0.0425,0.9685,-1.626,-0.8092,0.4351,0,0,0
-0.3096,0.0391,0.9744,-1.5954,-0.6031,-0.5038,0,0,0
-0.2976,0.0361,0.9775,-0.9847,-0.1908,-1.1298,0,0,0
-0.2888,0.0305,0.9812,-0.3511,0.5573,-0.4733,0,0,0
-0.2932,0.0349,0.9897,-0.626,0.1756,0.6412,0,0,0
-0.3049,0.0435,0.9939,-1.1908,-0.1603,0.4351,0,0,0
-0.313,0.0486,0.9878,-1.9237,-1.1679,0.2214,0,0,0
-0.3108,0.0427,0.9888,-3.0992,-1.9771,-0.0763,0,0,0
-0.3032,0.0383,0.9805,-3.0382,-1.4351,-0.5038,0,0,0
-0.2881,0.0315,0.9761,-2.1374,-0.5802,-0.3053,0,0,0
-0.2915,0.0305,0.978,-0.6031,0.5649,0.2137,0,0,0
-0.2964,0.0347,0.9871,0.0076,1.7481,0.4733,0,0,0
-0.3127,0.0464,0.9956,-0.1374,1.9313,0.916,0,0,0
-0.3167,0.0496,0.9834,-1.0458,0.9466,0.1832,0,0,0
-0.3149,0.0522,0.9958,-1.8473,0.2595,-0.0305,0,0,0
-0.3157,0.051,0.9871,-2.8092,0.0076,-0.626,0,0,0
-0.3176,0.0461,0.9785,-3.1221,-0.3359,-1.4122,0,0,0
-0.3088,0.0488,0.9673,-3.9618,-1.0687,-1.8473,0,0,0
-0.3052,0.0313,0.9622,-3.1069,-2.5267,-1.9924,0,0,0
-0.2681,0.031,0.9744,-1.9695,-0.0382,-0.542,0,0,0
-0.2854,0.0352,0.96,-1.8321,1.2824,-0.626,0,0,0
-0.2905,0.0364,0.9675,-0.4122,0.0382,0.5725,0,0,0
-0.2849,0.0415,0.9719,0.3206,0.6183,1.229,0,0,0
-0.2986,0.0464,0.9839,0.4962,0.9847,1.1527,0,0,0
-0.3127,0.0496,0.9783,0.1679,0.4427,0.5267,0,0,0
-0.3225,0.0557,0.9868,-0.7939,-0.687,-0.1908,0,0,0
-0.3159,0.0535,0.9883,-1.1374,-1.458,-1.0458,0,0,0
-0.3127,0.053,0.9861,-1.6031,-0.9237,-1.3435,0,0,0
-0.3164,0.0486,0.9893,-1.5649,-1.0382,-1.4351,0,0,0
-0.3074,0.0491,0.9883,-1.8092,-0.7405,-1.5267,0,0,0
-0.3076,0.0417,0.9871,-2.3435,-0.4275,-1.458,0,0,0
-0.3086,0.0403,0.9839,-2.8931,-1.0916,-1.2748,0,0,0
-0.3027,0.0369,0.9817,-3.0076,-1.1985,-1.0916,0,0,0
-0.2988,0.0317,0.9773,-2.7405,-0.7786,-1.1221,0,0,0
-0.2961,0.0308,0.9722,-2.7481,-0.6412,-0.8473,0,0,0
-0.2986,0.0366,0.9614,-2.4962,-0.4122,-0.6412,0,0,0
-0.3037,0.0298,0.9656,-1.9313,-1.0153,-1.0458,0,0,0
-0.29,0.033,0.9756,-1.5725,-1.0763,-0.4656,0,0,0
-0.2913,0.0334,0.9839,-1.6718,-0.1069,0.5954,0,0,0
-0.3062,0.0378,0.9709,-1.1756,0.2977,0.0153,0,0,0
-0.3008,0.0313,0.9856,-0.7252,-0.6336,-0.1145,0,0,0
-0.2932,0.0364,0.9929,-0.6947,-0.0229,0.3588,0,0,0
-0.2976,0.0432,0.9919,-0.7634,0.3893,0.7939,0,0,0
-0.3018,0.0427,0.9954,-0.5954,0.5573,1.2672,0,0,0
-0.3105,0.0515,0.9871,-1.0,0.6031,0.916,0,0,0
-0.3167,0.0535,0.9895,-2.0382,0.0534,0.5496,0,0,0
-0.3169,0.0518,0.9863,-3.0229,-0.313,-0.2443,0,0,0
-0.3157,0.0527,0.9758,-3.7252,-0.5802,-1.1221,0,0,0
-0.3169,0.0474,0.9624,-3.7252,-1.5496,-1.542,0,0,0
-0.3027,0.0388,0.9646,-2.8092,-1.6107,-2.5954,0,0,0
-0.2837,0.0295,0.9612,-0.8855,-0.771,-2.0,0,0,0
-0.2817,0.0269,0.9749,0.8168,0.9771,-0.6107,0,0,0
-0.2913,0.0361,0.9866,0.8015,1.3359,0.0076,0,0,0
-0.3069,0.0474,1.001,-0.5878,0.1374,0.5649,0,0,0
-0.3035,0.0498,1.0007,-2.4733,-0.9084,0.2901,0,0,0
-0.3081,0.0469,0.9966,-3.5267,-0.5878,0.2061,0,0,0
-0.314,0.0481,0.9731,-3.5344,-0.374,-0.5038,0,0,0
-0.3179,0.0474,0.969,-2.6947,-0.5802,-0.7939,0,0,0
-0.3042,0.0415,0.9668,-1.9237,-0.8092,-1.084,0,0,0
-0.3022,0.0403,0.9744,-1.0992,-0.145,-1.0763,0,0,0
-0.2974,0.0452,0.9739,-0.8473,-0.2901,-0.8321,0,0,0
-0.3027,0.0454,0.9795,-1.0076,-0.3969,-0.4809,0,0,0
-0.2969,0.041,0.9739,-1.2901,-0.5038,-0.374,0,0,0
-0.302,0.0435,0.978,-1.1985,-0.313,0.0153,0,0,0
-0.3054,0.0381,0.9756,-1.0153,-0.4962,-0.4504,0,0,0
-0.3059,0.0437,0.9807,-1.5038,-0.4962,-0.4427,0,0,0
-0.2966,0.0364,0.9814,-1.0305,-1.0916,-0.5038,0,0,0
-0.2927,0.0354,0.9763,-0.4962,-0.0992,0.313,0,0,0
-0.3,0.0425,0.9795,-1.2061,0.0687,0.7176,0,0,0
-0.312,0.0471,0.9763,-1.1756,-0.2901,0.7099,0,0,0
-0.3152,0.0457,0.9788,-1.4351,-0.9924,-0.1756,0,0,0
-0.3032,0.0413,0.9788,-1.3435,-1.6947,-0.9542,0,0,0
-0.2944,0.0383,0.989,-1.4885,-0.6565,-0.0916,0,0,0
-0.2961,0.0413,0.9854,-1.4733,-0.2443,0.0534,0,0,0
-0.3018,0.0398,0.9854,-1.5802,-0.5344,0.2519,0,0,0
-0.3054,0.0422,0.9834,-1.5573,-0.4198,0.1908,0,0,0
-0.3069,0.0508,0.9778,-2.1756,-0.229,0.2519,0,0,0
-0.3179,0.0398,0.9756,-1.7481,-0.687,0.0611,0,0,0
-0.3132,0.0452,0.9683,-1.4198,-1.0153,-0.4427,0,0,0
-0.3123,0.0334,0.9785,-0.8855,-1.5038,-0.6489,0,0,0
-0.2935,0.0393,0.9832,-0.7939,-0.6412,-0.2519,0,0,0
-0.3042,0.0383,0.9871,-0.229,0.2748,0.2748,0,0,0
-0.3062,0.0422,0.9919,-0.0229,0.0458,0.0992,0,0,0
-0.3052,0.0415,0.9971,-0.9084,0.229,0.5878,0,0,0
-0.3169,0.0464,0.9866,-1.8244,0.3282,0.1756,0,0,0
-0.3171,0.043,0.9946,-2.4122,-0.3053,-0.3435,0,0,0
-0.2993,0.0396,0.9929,-2.7863,-0.626,-0.5725,0,0,0
-0.3025,0.0344,0.9849,-2.5649,-0.1832,-0.2443,0,0,0
-0.2998,0.031,0.9719,-2.1145,-0.2519,0.1756,0,0,0
-0.3032,0.0391,0.9771,-1.6718,-0.1298,0.4198,0,0,0
-0.2952,0.042,0.9829,-1.9847,0.0458,1.0153,0,0,0
-0.2996,0.0442,0.9739,-1.7252,0.4198,1.1069,0,0,0
-0.3035,0.0486,0.9722,-1.4733,0.7023,1.5496,0,0,0
-0.3027,0.0491,0.9746,-0.9389,0.6718,1.0992,0,0,0
-0.3044,0.0598,0.9775,-1.4198,0.6565,1.1298,0,0,0
-0.3213,0.0537,0.9824,-1.3053,0.4198,0.4275,0,0,0
-0.3237,0.0713,0.9822,-2.542,-0.4962,-1.1908,0,0,0
-0.3059,0.0498,0.9829,-2.5191,-1.4427,-1.6183,0,0,0
-0.2957,0.0569,0.9651,-2.5878,-1.2519,-1.7481,0,0,0
-0.2859,0.0435,0.9802,-1.3588,-0.5115,-0.5802,0,0,0
-0.2974,0.0503,0.9819,-1.1679,1.1908,-0.1908,0,0,0
-0.3142,0.0498,0.9705,-0.9924,0.2595,-0.2672,0,0,0
-0.3125,0.0547,0.9717,-1.4122,-0.8092,-0.7863,0,0,0
-0.3108,0.0498,0.9729,-1.374,-0.6947,-1.3969,0,0,0
-0.3003,0.0391,0.9741,-1.2214,-1.0382,-1.4427,0,0,0
-0.292,0.0386,0.9763,-0.8855,-0.6107,-0.855,0,0,0
-0.2876,0.0408,0.9795,-0.7252,-0.0992,0.4885,0,0,0
-0.3032,0.0442,0.9822,-0.8473,0.3817,0.374,0,0,0
-0.2976,0.0427,0.9841,-0.7023,0.313,0.5725,0,0,0
-0.3086,0.0491,0.9827,-1.0382,0.4122,0.8931,0,0,0
-0.3118,0.0493,0.9832,-1.5115,-0.3817,0.7023,0,0,0
-0.3145,0.0562,0.9692,-1.5649,-0.4885,0.1603,0,0,0
-0.3264,0.051,0.9717,-1.5115,-1.374,-0.8931,0,0,0
-0.3098,0.0566,0.9768,-1.8168,-1.9542,-1.7481,0,0,0
-0.3025,0.0422,0.9807,-2.1832,-1.9237,-1.9695,0,0,0
-0.2922,0.051,0.9951,-2.4351,-1.5344,-1.7863,0,0,0
-0.3013,0.0461,0.9905,-2.7023,-1.1756,-1.2519,0,0,0
-0.3015,0.0486,0.9861,-2.8168,-0.916,-0.6489,0,0,0
-0.3052,0.0471,0.9788,-2.771,-0.5115,-0.5267,0,0,0
-0.3147,0.0544,0.9731,-2.5038,-0.542,-1.1221,0,0,0
-0.3132,0.0503,0.9636,-2.4122,-1.0382,-1.6412,0,0,0
-0.3088,0.0471,0.9712,-2.1145,-0.7939,-2.1527,0,0,0
-0.3008,0.0459,0.9648,-1.5573,-0.5954,-2.0,0,0,0
-0.303,0.0508,0.9778,-1.1374,-0.7328,-1.8626,0,0,0
-0.2966,0.0491,0.9854,-1.3588,-0.0687,-1.8168,0,0,0
-0.3062,0.0588,0.9841,-2.0305,0.2672,-1.3206,0,0,0
-0.3096,0.0532,0.9807,-2.7557,-0.9924,-1.8321,0,0,0
-0.3037,0.0557,0.9761,-3.0763,-1.4122,-2.4427,0,0,0
-0.3066,0.041,0.9741,-3.458,-1.8931,-2.8244,0,0,0
-0.2942,0.0386,0.9636,-3.0229,-1.8321,-3.3664,0,0,0
-0.2834,0.0339,0.9626,-1.8397,-1.8168,-2.2061,0,0,0
-0.2861,0.0371,0.9709,-1.3817,-1.4122,-1.1069,0,0,0
-0.3022,0.0383,0.9763,-1.5496,-0.8015,-0.4885,0,0,0
-0.3079,0.0413,0.9749,-1.2214,-0.9618,-0.4962,0,0,0
-0.3108,0.0439,0.9771,-1.3893,-0.9771,-1.145,0,0,0
-0.3093,0.0388,0.9751,-1.1679,-0.9695,-1.3893,0,0,0
-0.3,0.0366,0.9771,-1.6107,-1.1908,-1.145,0,0,0
-0.303,0.0352,0.9905,-1.0763,-0.771,-1.145,0,0,0
-0.3069,0.0398,0.9929,-1.3206,-0.2595,-0.374,0,0,0
-0.324,0.0454,0.9937,-2.0992,-0.3511,-0.0305,0,0,0
-0.3208,0.0413,0.9915,-3.0458,-1.2519,-1.0076,0,0,0
-0.3093,0.0393,0.9858,-3.2748,-1.2137,-1.2519,0,0,0
-0.3049,0.0359,0.9785,-3.0229,-1.0534,-0.9237,0,0,0
-0.2998,0.0364,0.9778,-2.6947,0.1527,-0.4275,0,0,0
-0.3074,0.0359,0.9729,-2.0,0.4656,-1.0305,0,0,0
-0.3062,0.0339,0.9753,-1.5649,0.0687,-0.9771,0,0,0
-0.303,0.0386,0.979,-1.8244,0.6794,-0.4962,0,0,0
-0.3015,0.0366,0.9885,-2.145,0.0458,-1.0305,0,0,0
-0.2944,0.0427,0.9888,-2.5038,0.0916,-0.3969,0,0,0
-0.2996,0.0452,0.9873,-2.7405,-0.2824,-0.145,0,0,0
-0.2969,0.0466,0.9753,-2.8779,-0.0382,-0.1069,0,0,0
-0.2969,0.0383,0.9741,-2.0611,0.3053,0.1756,0,0,0
-0.3022,0.0498,0.9773,-1.5115,0.2977,-0.0305,0,0,0
-0.3083,0.0479,0.9761,-1.5878,0.2595,-0.0992,0,0,0
-0.3076,0.053,0.9763,-1.2519,-0.1298,-0.9771,0,0,0
-0.3025,0.0508,0.9761,-1.8015,-1.0382,-1.0992,0,0,0
-0.3042,0.0498,0.9814,-2.2519,-1.4962,-1.084,0,0,0
-0.3003,0.0505,0.9746,-3.1069,-1.2901,-0.8168,0,0,0
-0.3057,0.0447,0.9673,-3.1679,-1.1985,-0.3435,0,0,0
-0.3044,0.0544,0.9656,-2.1679,-0.8702,-0.9847,0,0,0
-0.3008,0.0417,0.9663,-1.458,-0.7023,-1.0076,0,0,0
-0.302,0.0393,0.9648,-0.6183,-0.458,-1.374,0,0,0
-0.2998,0.0381,0.9714,-0.1985,-0.3359,-1.1374,0,0,0
-0.3005,0.0449,0.9768,-0.4504,-0.374,-0.7557,0,0,0
-0.3145,0.0435,0.979,-1.0916,-0.7863,-1.0305,0,0,0
-0.3083,0.0459,0.9814,-2.3435,-2.374,-1.8931,0,0,0
-0.2974,0.0315,0.9827,-1.8931,-3.6641,-1.5191,0,0,0
-0.2803,0.0227,0.9897,-0.5496,-1.9771,-0.8473,0,0,0
-0.2883,0.0215,0.9905,-0.1069,0.0687,0.229,0,0,0
-0.2991,0.0347,0.9875,-0.458,-0.1603,0.4656,0,0,0
-0.3022,0.0361,0.9883,-0.4885,-0.8321,0.6336,0,0,0
-0.304,0.0432,0.9944,-1.5344,-0.7328,1.4122,0,0,0
-0.3083,0.0396,0.9868,-1.7328,0.0076,0.855,0,0,0
-0.3174,0.051,0.9802,-1.2748,0.4504,0.9389,0,0,0
-0.3203,0.0564,0.9832,-1.6031,-0.0458,0.4809,0,0,0
-0.3127,0.0586,0.9814,-2.4275,-0.4122,-0.0992,0,0,0
-0.3174,0.0518,0.9697,-2.6718,-0.9237,-1.0916,0,0,0
-0.3054,0.0466,0.9727,-2.1832,-0.9847,-1.8626,0,0,0
-0.2961,0.0461,0.9785,-1.4275,0.145,-1.5802,0,0,0
-0.2998,0.0457,0.9758,-1.1985,0.0992,-2.0,0,0,0
-0.3,0.0469,0.9792,-1.2977,-0.2672,-1.0,0,0,0
-0.2993,0.042,0.9829,-1.3206,-0.6489,-1.0229,0,0,0
-0.2966,0.0415,0.9868,-1.5191,0.1908,-0.8092,0,0,0
-0.304,0.0496,0.9854,-2.6336,0.0458,-0.2595,0,0,0
-0.3142,0.043,0.967,-3.5344,-1.5191,-1.1145,0,0,0
-0.2993,0.0391,0.9653,-3.0382,-3.0534,-1.8626,0,0,0
-0.2776,0.0317,0.9675,-2.0,-2.5649,-1.0534,0,0,0
-0.2734,0.0305,0.9675,-0.4656,-1.0763,-0.2443,0,0,0
-0.2744,0.0413,0.9751,0.7099,-0.1756,0.6565,0,0,0
-0.2871,0.0493,0.9817,1.2977,0.0763,0.9084,0,0,0
-0.3032,0.0647,0.9973,1.1374,-0.4962,1.229,0,0,0
-0.3157,0.0732,0.9976,-0.4198,-1.2061,0.8168,0,0,0
-0.3306,0.0798,0.9934,-1.9084,-2.2748,-0.7939,0,0,0
-0.3259,0.0676,0.9751,-2.0916,-3.7405,-2.6412,0,0,0
-0.3127,0.0513,0.9778,-1.8321,-3.6183,-3.2901,0,0,0
-0.2908,0.0483,0.9731,-2.1145,-3.5191,-3.1908,0,0,0
-0.2722,0.0176,0.9626,-0.5344,-2.9542,-1.5191,0,0,0
-0.2729,0.0271,0.9773,1.5954,-1.2366,0.7786,0,0,0
-0.292,0.0378,0.9858,1.8015,-0.145,2.0687,0,0,0
-0.3254,0.052,0.9856,1.0992,0.2366,1.0687,0,0,0
-0.3423,0.0581,0.9714,-0.2061,-1.6565,-0.3359,0,0,0
-0.3113,0.0449,1.0078,-0.374,-2.2901,-2.5573,0,0,0
-0.3213,0.0552,0.9983,-3.4885,-4.2901,-3.3435,0,0,0
-0.2815,0.0222,0.9727,-5.1603,-3.855,-2.5191,0,0,0
-0.2729,0.0068,0.9578,-1.5038,-2.1832,-1.0992,0,0,0
-0.2847,0.0181,0.9717,0.4046,-0.0305,-0.4656,0,0,0
-0.3037,0.0291,0.9709,-0.6412,-0.0992,0.4427,0,0,0
-0.3115,0.0229,0.9812,-1.1145,-1.6565,0.1374,0,0,0
-0.3054,0.0222,0.9746,-1.8779,-2.3435,-0.9389,0,0,0
-0.2871,0.0125,0.9868,-1.8473,-1.5954,-0.4656,0,0,0
-0.2783,0.01,0.9792,-1.7405,-0.6107,1.0611,0,0,0
-0.2925,0.022,0.9778,-0.8931,-0.0916,2.2443,0,0,0
-0.2988,0.0295,0.9839,-0.2519,0.6031,2.8779,0,0,0
-0.3115,0.0396,0.9878,-0.0458,0.4046,2.4733,0,0,0
-0.3091,0.0479,1.0032,-0.6336,0.4809,2.0382,0,0,0
-0.3125,0.0557,1.0088,-1.229,0.7786,2.0687,0,0,0
-0.3025,0.0554,0.9954,-1.6641,0.3206,1.5725,0,0,0
-0.293,0.0549,1.0085,-1.7863,1.2977,1.4962,0,0,0
-0.2959,0.0627,1.0046,-2.4122,1.9389,2.1069,0,0,0
-0.3,0.0667,1.0007,-3.2748,2.084,1.9237,0,0,0
-0.3098,0.0784,0.9885,-4.5573,1.5191,0.916,0,0,0
-0.311,0.0752,0.97,-4.771,-0.687,-0.3206,0,0,0
-0.2964,0.075,0.9709,-4.0916,-0.8626,-1.1298,0,0,0
-0.2883,0.0728,0.9578,-3.374,0.229,-1.145,0,0,0
-0.2856,0.0686,0.9622,-2.313,0.7634,-0.771,0,0,0
-0.2935,0.0798,0.9465,-2.4962,0.1069,-0.855,0,0,0
-0.304,0.0708,0.946,-1.9084,-1.3969,-1.4885,0,0,0
-0.3018,0.0693,0.959,-1.2214,-1.7405,-1.9695,0,0,0
-0.2876,0.0603,0.96,-0.771,-1.7328,-2.6107,0,0,0
-0.2832,0.0503,0.9634,-0.3588,-1.0382,-1.7099,0,0,0
-0.2869,0.0505,0.9714,0.1374,-1.0534,-1.5344,0,0,0
-0.2915,0.0488,0.9797,0.2901,-1.4046,-1.374,0,0,0
-0.2976,0.0522,0.9915,-0.5878,-1.4046,-0.9771,0,0,0
-0.3098,0.0583,0.9919,-1.5344,-1.7252,-1.5725,0,0,0
-0.3154,0.052,0.9883,-2.9695,-2.9313,-1.9542,0,0,0
-0.3013,0.0457,0.9836,-2.9847,-2.8626,-2.8015,0,0,0
-0.2937,0.0344,0.9822,-2.2672,-2.0229,-2.8168,0,0,0
-0.3005,0.0344,0.98,-1.6565,-1.0763,-2.3053,0,0,0
-0.2996,0.0435,0.9954,-1.7557,-0.313,-1.5038,0,0,0
-0.3174,0.0422,0.9824,-2.0,-0.5115,-2.313,0,0,0
