ax,ay,az,gx,gy,gz,left_click,right_click
-0.2073,-0.6069,0.7822,-2.5344,-0.9008,-0.9695,0,0,0
-0.2053,-0.6206,0.7942,-2.0153,-0.855,-0.9008,0,0,0
-0.2021,-0.6194,0.802,-1.4885,-0.6641,-0.7252,0,0,0
-0.2014,-0.6147,0.7993,-0.916,-0.4885,-0.626,0,0,0
-0.2021,-0.6135,0.7988,-0.8779,-0.3969,-0.6412,0,0,0
-0.2053,-0.6006,0.7954,-0.8321,-0.6412,-0.3435,0,0,0
-0.2039,-0.5923,0.7913,-1.1221,-0.6031,-0.5496,0,0,0
-0.2065,-0.5872,0.7917,-1.2443,-0.7099,-0.5496,0,0,0
-0.2107,-0.5894,0.7976,-1.7176,-0.7405,-0.9008,0,0,0
-0.2041,-0.594,0.7939,-1.9618,-0.4809,-0.9695,0,0,0
-0.2053,-0.6045,0.8013,-2.7099,-0.5496,-0.687,0,0,0
-0.1987,-0.6079,0.8049,-2.5573,-0.6412,-0.2824,0,0,0
-0.1995,-0.6133,0.7966,-2.5038,-0.4275,-0.687,0,0,0
-0.2002,-0.614,0.7937,-1.7786,-0.229,-0.4656,0,0,0
-0.196,-0.6069,0.7925,-1.5878,-0.3053,-0.2519,0,0,0
-0.2009,-0.604,0.7905,-1.4809,-0.2137,-0.2977,0,0,0
-0.2063,-0.6021,0.7905,-1.4962,-0.1298,-0.1985,0,0,0
-0.2087,-0.6008,0.7922,-1.6641,-0.2824,-0.145,0,0,0
-0.2083,-0.5977,0.7976,-1.6565,-0.3969,-0.0458,0,0,0
-0.2107,-0.5986,0.7991,-1.9542,-0.1298,-0.6183,0,0,0
-0.2097,-0.604,0.7976,-2.1679,-0.1069,-0.7328,0,0,0
-0.2109,-0.6084,0.7996,-2.1908,-0.1832,-0.4046,0,0,0
-0.2078,-0.6047,0.7966,-2.0,-0.0992,-0.4809,0,0,0
-0.2112,-0.6062,0.7915,-2.0305,-0.3053,-0.2901,0,0,0
-0.2095,-0.603,0.7935,-2.0382,-0.1908,-0.5115,0,0,0
-0.208,-0.6038,0.7849,-1.8779,-0.5802,-0.3588,0,0,0
-0.2134,-0.6057,0.7815,-1.8397,-0.3664,-0.5954,0,0,0
-0.2102,-0.603,0.791,-1.9847,-0.4733,-0.6107,0,0,0
-0.2166,-0.6077,0.793,-1.771,-0.5573,-0.7557,0,0,0
-0.2151,-0.605,0.7917,-1.6794,-0.4122,-0.6336,0,0,0
-0.2114,-0.6099,0.7952,-1.6718,-0.3282,-0.8397,0,0,0
-0.2056,-0.6055,0.7922,-1.6031,-0.7634,-0.5344,0,0,0
-0.2068,-0.6016,0.8003,-1.9008,-0.5267,-0.6947,0,0,0
-0.2014,-0.604,0.7949,-2.0382,-0.626,-0.5573,0,0,0
-0.2034,-0.604,0.7964,-2.2137,-0.3893,-0.5725,0,0,0
-0.2026,-0.6042,0.7881,-1.8092,-0.5191,-0.5649,0,0,0
-0.2068,-0.6006,0.7971,-1.7023,-0.5649,-0.5649,0,0,0
-0.186,-0.5947,0.7922,-3.542,0.5649,-0.3359,0,0,0
-0.1831,-0.5835,0.7512,2.3206,1.4046,-0.6641,0,0,0
-0.2231,-0.6526,0.7639,3.4733,-0.3282,0.0305,0,0,0
-0.1995,-0.5537,0.8416,-0.3664,0.3817,-0.8779,0,0,0
-0.2122,-0.572,0.8279,-6.5954,-0.9237,-0.9695,0,0,0
-0.2759,-0.5774,0.8555,-11.1832,2.1679,-4.7786,0,0,0
-0.2773,-0.5249,0.6018,-12.0153,-10.5725,-5.0916,0,0,0
-0.2144,-0.7161,0.9343,-8.0916,-2.9466,-6.3893,0,0,0
-0.125,-0.6216,0.7693,-5.9695,-4.4809,-1.2748,0,0,0
-0.1694,-0.6177,0.8179,-5.8931,-0.0458,1.1527,0,0,0
-0.2102,-0.6074,0.7971,-4.0992,-0.458,-0.3359,0,0,0
-0.24,-0.6145,0.7629,-3.7328,-0.1374,-0.7099,0,0,0
-0.2004,-0.6252,0.783,-0.8626,-0.2443,-0.2595,0,0,0
-0.2112,-0.6165,0.7837,0.8855,-0.5954,-0.1832,0,0,0
-0.2085,-0.5876,0.8018,-1.6336,-0.3893,-0.4046,0,0,0
-0.2073,-0.6091,0.7896,-3.1145,-0.4656,-0.4046,0,0,0
-0.2092,-0.6123,0.7881,-2.9695,-0.3053,-0.5954,0,0,0
-0.2124,-0.6162,0.7798,-1.4275,-0.5496,-0.7481,0,0,0
-0.2024,-0.6069,0.7883,-1.1069,-0.9466,-0.5878,0,0,0
-0.2085,-0.6067,0.7949,-1.542,-0.626,-0.4122,0,0,0
-0.2168,-0.5991,0.7871,-1.7557,-0.9389,-0.2519,0,0,0
-0.2083,-0.6279,0.7766,0.0763,-1.0,-1.2214,0,0,0
-0.2012,-0.6145,0.7813,0.9389,-1.7252,-0.542,0,0,0
-0.1965,-0.5918,0.7883,-0.3664,-1.145,2.2595,0,0,0
-0.2288,-0.6416,0.7529,0.145,-1.5496,0.4046,0,0,0
-0.2009,-0.5833,0.8047,-1.1221,-0.4351,-3.5115,0,0,0
-0.1829,-0.6218,0.7903,-4.0916,-1.2366,-0.3359,0,0,0
-0.208,-0.6096,0.7908,-4.2443,0.0992,-0.8473,0,0,0
-0.1897,-0.6416,0.7827,-1.9618,-0.8626,0.0229,0,0,0
-0.1921,-0.6323,0.7898,-0.374,-0.1069,0.2672,0,0,0
-0.2151,-0.6238,0.7668,2.5573,-0.2824,0.2443,0,0,0
-0.2026,-0.5793,0.8003,2.229,0.2061,-0.7481,0,0,0
-0.176,-0.688,0.7031,-1.1832,-3.5267,2.1069,0,0,0
-0.2029,-0.5359,0.8508,-5.3206,1.6183,-0.8321,0,0,0
-0.2297,-0.6399,0.7595,-4.2061,-1.1985,-0.8702,0,0,0
-0.1978,-0.6245,0.7715,2.3969,-0.3511,-0.3359,0,0,0
-0.2026,-0.5984,0.7961,2.7328,-0.3206,0.6107,0,0,0
-0.207,-0.5691,0.8167,-0.3435,-0.1145,-0.2137,0,0,0
-0.2134,-0.593,0.8049,-4.8321,-0.687,-1.3435,0,0,0
-0.207,-0.6021,0.8005,-7.2061,-0.4198,-1.7252,0,0,0
-0.2051,-0.6362,0.7651,-5.4427,0.0305,-0.7405,0,0,0
-0.1992,-0.6196,0.7788,-1.8244,0.2748,-0.2824,0,0,0
-0.197,-0.6233,0.7791,1.0229,-0.8779,1.1145,0,0,0
-0.1995,-0.6174,0.7937,0.8855,-0.7099,1.0916,0,0,0
-0.2087,-0.5913,0.7988,-0.7786,-0.855,0.5954,0,0,0
-0.1995,-0.6006,0.7913,-2.7481,-0.5573,0.7939,0,0,0
-0.1926,-0.623,0.8118,-2.8168,-0.6107,1.8779,0,0,0
-0.1841,-0.6277,0.8074,-3.5573,0.4885,2.7099,0,0,0
-0.1682,-0.6208,0.8096,-3.8092,0.3664,4.6489,0,0,0
-0.1987,-0.687,0.8079,-0.1145,0.1069,6.7557,0,0,0
-0.2151,-0.6038,0.782,-0.0458,-2.4198,7.8321,0,0,0
-0.2322,-0.5669,0.7832,0.8244,-1.3359,4.6336,0,0,0
-0.2314,-0.6274,0.7983,1.0763,0.3817,3.9695,0,0,0
-0.2349,-0.668,0.7258,11.0153,2.4809,5.9771,0,0,0
-0.2097,-0.7544,0.7798,21.0305,1.9084,8.2519,0,0,0
-0.1602,-0.6008,0.8455,23.855,2.5344,14.0153,0,0,0
-0.2007,-0.6121,0.8901,21.7099,0.6794,16.1298,0,0,0
-0.2161,-0.4485,0.8252,14.4809,0.2214,11.0,0,0,0
-0.2695,-0.4346,0.9727,5.8855,3.7328,2.916,0,0,0
-0.2571,-0.554,0.7224,1.2824,-2.6107,-7.5802,0,0,0
-0.2363,-0.6587,0.7996,1.5267,1.6183,-9.916,0,0,0
-0.2437,-0.7092,0.8035,4.0382,-1.3511,-4.0076,0,0,0
-0.2451,-0.644,0.6965,14.313,-3.7328,-1.7939,0,0,0
-0.2419,-0.606,0.769,14.4198,-4.2519,-3.5725,0,0,0
-0.2461,-0.6121,0.77,17.9389,-6.4885,-3.0763,0,0,0
-0.2178,-0.6274,0.8457,19.4122,-6.9771,-2.5725,0,0,0
-0.2268,-0.6599,0.804,30.0458,-10.3817,-2.7328,0,0,0
-0.3015,-0.6506,0.8958,58.7099,-12.7252,1.0534,0,0,0
-0.252,-0.6541,0.8396,68.313,-18.0992,3.6641,0,0,0
-0.2607,-0.7407,0.9824,65.6947,-21.7099,11.1985,0,0,0
-0.1819,-0.7524,1.0598,79.687,-12.6412,24.145,0,0,0
-0.2209,-0.7131,1.0872,84.6412,-2.6947,36.7939,0,0,0
-0.1948,-0.6514,1.0405,96.9771,4.2061,44.5725,0,0,0
-0.1926,-0.5872,1.0071,105.7328,7.145,45.4656,0,0,0
-0.1775,-0.5281,0.896,113.0992,6.1374,44.0992,0,0,0
-0.1646,-0.457,0.8025,117.1908,-4.4656,43.2443,0,0,0
-0.1526,-0.3799,0.8022,120.2672,-15.3664,39.3282,0,0,0
-0.1619,-0.3115,0.832,125.0153,-24.9618,32.3511,0,0,0
-0.1765,-0.272,0.8604,126.916,-30.6489,22.3511,0,0,0
-0.1831,-0.2781,0.918,124.0,-32.4122,13.9771,0,0,0
-0.2263,-0.2954,0.9702,121.1908,-29.0763,10.2061,0,0,0
-0.2495,-0.2771,0.9861,118.687,-23.1374,7.0076,0,0,0
-0.24,-0.2925,0.9712,117.6947,-17.9313,6.855,0,0,0
-0.2229,-0.2817,0.9324,120.1298,-14.4962,9.1603,0,0,0
-0.2021,-0.2817,0.9202,119.0153,-12.771,11.4046,0,0,0
-0.2417,-0.2327,0.9019,123.084,-9.8397,11.4733,0,0,0
-0.2466,-0.1785,0.825,122.1527,-11.3511,9.7023,0,0,0
-0.2278,-0.1179,0.8066,117.145,-18.0229,8.6412,0,0,0
-0.2,-0.0615,0.8022,111.4198,-25.9466,6.9389,0,0,0
-0.1594,-0.0059,0.8557,105.1145,-32.7405,2.6794,0,0,0
-0.1394,0.0376,0.9202,94.9389,-35.313,-5.1145,0,0,0
-0.1113,0.03,0.9561,79.5191,-34.6412,-14.5954,0,0,0
-0.1392,0.002,1.061,64.8168,-25.9313,-21.5114,0,0,0
-0.1775,-0.0322,1.0593,51.2366,-15.3588,-25.2214,0,0,0
-0.1802,-0.0608,1.0906,40.2137,-7.0458,-22.6489,0,0,0
-0.1711,-0.0894,1.0935,32.7481,2.1756,-15.9237,0,0,0
-0.1814,-0.0732,1.0698,29.4198,9.8931,-7.4122,0,0,0
-0.1819,-0.0696,1.0447,24.7176,16.5649,-1.7481,0,0,0
-0.1663,-0.0488,1.0237,23.7176,21.1069,1.084,0,0,0
-0.155,-0.033,1.0039,25.542,23.229,1.084,0,0,0
-0.1606,-0.0068,0.9844,28.916,21.8321,-0.6412,0,0,0
-0.1541,0.0002,0.9751,35.0763,17.3511,-2.5344,0,0,0
-0.1643,0.0181,0.9514,40.4809,12.0382,-5.7863,0,0,0
-0.1653,0.0085,0.9304,46.5344,4.8473,-8.8855,0,0,0
-0.1736,0.0249,0.9424,49.2137,-3.0916,-11.6031,0,0,0
-0.1851,0.0381,0.9658,51.145,-7.4885,-14.1832,0,0,0
-0.1807,0.0305,0.9795,51.0076,-9.2519,-16.2137,0,0,0
-0.1694,0.0034,0.9817,46.2519,-7.9695,-16.2977,0,0,0
-0.1785,-0.0083,0.9751,36.7023,-4.1527,-15.6794,0,0,0
-0.2058,-0.0027,0.969,23.7099,0.6641,-14.2366,0,0,0
-0.1895,-0.0288,0.9617,11.9313,3.5878,-10.0305,0,0,0
-0.1787,-0.0227,0.9819,-1.0763,5.0305,-4.2748,0,0,0
-0.187,-0.0054,1.0249,-8.8244,8.5267,-0.7023,0,0,0
-0.1819,0.0085,1.0181,-11.9237,13.0687,1.0076,0,0,0
-0.1685,0.0305,1.0161,-11.7405,13.8626,2.4046,0,0,0
-0.1628,0.0278,0.9756,-6.626,12.9313,2.2137,0,0,0
-0.1726,0.051,0.9502,-1.7634,9.3435,0.2061,0,0,0
-0.1956,0.0579,0.9448,2.687,4.1679,-3.1298,0,0,0
-0.1887,0.0481,0.9446,5.6641,-2.458,-6.0153,0,0,0
-0.186,0.0295,0.9912,7.3282,-7.4809,-7.542,0,0,0
-0.1875,0.0286,1.0349,7.6336,-8.2443,-7.916,0,0,0
-0.1902,0.0381,1.0681,5.771,-5.2366,-7.0611,0,0,0
-0.1855,0.0413,1.0828,2.8473,0.6794,-5.7099,0,0,0
-0.1797,0.0383,1.0757,0.0153,7.0992,-3.4122,0,0,0
-0.1809,0.0481,1.0413,-2.0458,11.3817,-2.6107,0,0,0
-0.1909,0.0491,0.9983,-3.1145,12.5267,-2.8321,0,0,0
-0.2031,0.0508,0.9832,-3.2901,10.3282,-3.7786,0,0,0
-0.2124,0.0342,0.9768,-3.313,6.0076,-4.7099,0,0,0
-0.2168,0.0266,0.9851,-2.2061,1.9313,-4.4351,0,0,0
-0.2068,0.0186,1.0103,-1.1832,-1.1832,-4.0153,0,0,0
-0.209,0.0217,1.0188,1.6412,-1.3817,-2.855,0,0,0
-0.1982,0.033,1.0222,2.6336,-0.0534,-1.626,0,0,0
-0.1958,0.042,1.0183,2.3053,1.7557,-1.229,0,0,0
-0.2021,0.0442,1.0144,1.9008,2.7328,-1.3893,0,0,0
-0.2073,0.0427,1.0012,3.2137,3.0229,-1.8168,0,0,0
-0.2156,0.0422,0.9927,3.9771,2.0076,-2.0305,0,0,0
-0.2092,0.0356,0.9768,2.6718,0.7481,-2.2977,0,0,0
-0.2063,0.0225,0.9646,0.9237,-0.6412,-1.4046,0,0,0
-0.2065,0.0151,0.9814,-1.3664,-1.2748,-0.7405,0,0,0
-0.2168,0.0083,0.9836,-3.5344,-1.8244,0.687,0,0,0
-0.2112,0.0129,0.998,-4.2672,-2.5573,2.5115,0,0,0
-0.2068,0.0232,1.0166,-3.855,-1.7557,3.5115,0,0,0
-0.1992,0.0393,1.0159,-1.8321,-1.4122,4.145,0,0,0
-0.1921,0.0493,1.0002,0.4427,-1.1756,3.4275,0,0,0
-0.1919,0.0522,0.9883,0.8244,-2.0611,1.1908,0,0,0
-0.2026,0.0503,0.9866,0.0763,-3.9084,-0.5038,0,0,0
-0.1975,0.041,1.0032,-2.0458,-5.2137,-1.855,0,0,0
-0.1956,0.0293,1.0303,-3.1221,-4.6489,-1.7481,0,0,0
-0.1997,0.0254,1.0435,-3.2519,-3.2137,-1.2214,0,0,0
-0.2021,0.0217,1.0457,-1.8931,-1.3817,-0.313,0,0,0
-0.198,0.0171,1.032,-1.4122,0.7252,0.3664,0,0,0
-0.2002,0.021,1.0127,-1.2901,1.6107,1.3588,0,0,0
-0.2078,0.0388,0.9993,-2.2214,1.1832,2.1221,0,0,0
-0.2017,0.0405,1.0054,-2.9008,0.2595,2.1069,0,0,0
-0.2024,0.0459,1.009,-4.6794,-0.1221,2.0763,0,0,0
-0.1973,0.0464,1.0208,-4.9542,-0.1908,1.6641,0,0,0
-0.1919,0.0657,1.0115,-4.5954,0.1832,1.2214,0,0,0
-0.1926,0.0461,1.02,-3.9466,0.7939,1.542,0,0,0
-0.1982,0.0515,1.0188,-2.9847,1.6031,1.1603,0,0,0
-0.1926,0.0518,1.0037,-1.6794,1.3206,0.5725,0,0,0
-0.1931,0.0569,1.0063,-1.1603,0.3588,0.0611,0,0,0
-0.1953,0.0566,0.991,-1.916,-0.5725,-1.145,0,0,0
-0.189,0.0583,1.0083,-2.855,-0.8779,-1.7939,0,0,0
-0.1953,0.0508,1.0156,-5.1069,-0.1374,-2.6031,0,0,0
-0.2083,0.0396,1.0376,-6.0611,1.1298,-3.145,0,0,0
-0.2151,0.0376,1.0444,-5.6336,3.7863,-2.9084,0,0,0
-0.2146,0.0303,1.0347,-5.9466,5.8473,-2.3435,0,0,0
-0.2148,0.0332,1.0447,-6.374,8.6489,-1.6718,0,0,0
-0.2161,0.0439,1.0457,-7.8397,12.3969,-1.626,0,0,0
-0.2275,0.0437,1.0571,-9.9695,16.855,-1.7939,0,0,0
-0.2334,0.0349,1.0808,-14.3664,22.9618,-2.3053,0,0,0
-0.2378,0.0308,1.1204,-19.7634,31.3359,-2.3206,0,0,0
-0.2354,0.0168,1.1531,-25.0687,42.3053,-1.374,0,0,0
-0.2419,-0.0022,1.1299,-27.7786,52.4962,1.7328,0,0,0
-0.2266,-0.0205,1.1086,-27.7786,61.7099,6.5115,0,0,0
-0.2249,-0.0105,1.0886,-26.4733,68.2748,9.5649,0,0,0
-0.2666,-0.0688,1.0325,-23.7405,69.855,12.9313,0,0,0
-0.282,0.0205,0.9614,-17.1985,63.9389,11.8702,0,0,0
-0.3022,0.02,0.9229,-9.2443,53.7252,9.0,0,0,0
-0.2971,0.0234,0.906,-3.0763,43.084,6.4656,0,0,0
-0.2937,0.0386,0.9302,1.4962,34.542,4.4656,0,0,0
-0.2927,0.0396,0.9761,2.6336,32.2824,1.0305,0,0,0
-0.3269,0.0315,1.031,2.2595,37.7328,-2.6641,0,0,0
-0.3208,0.002,1.0171,2.1679,39.9237,-2.4809,0,0,0
-0.3354,-0.0071,0.9431,1.9771,38.8473,-0.1908,0,0,0
-0.3555,0.0349,0.929,0.3588,35.313,0.0382,0,0,0
-0.3423,0.0017,0.9531,0.2977,34.5954,-0.8168,0,0,0
-0.3423,0.0103,0.9304,-1.0687,33.9847,-0.5191,0,0,0
-0.3591,0.0156,0.9626,-2.8168,33.7557,-1.4504,0,0,0
-0.3591,0.0156,0.9858,-3.1527,35.0916,-2.7405,0,0,0
-0.3557,-0.0103,0.9546,-2.145,35.4427,-1.6489,0,0,0
-0.3623,-0.0061,0.9363,0.313,32.1221,1.4656,0,0,0
-0.3782,0.011,0.9526,4.1298,29.0229,1.3969,0,0,0
-0.3784,0.0244,0.9639,6.2748,27.8473,-0.687,0,0,0
-0.3777,0.0105,0.9431,7.916,27.5267,-2.0076,0,0,0
-0.3867,0.0076,0.9268,8.7557,26.7023,-1.687,0,0,0
-0.3953,0.0154,0.9119,9.3969,25.229,-2.0076,0,0,0
-0.4053,0.02,0.9277,7.3588,24.9008,-2.6031,0,0,0
-0.395,0.0178,0.9177,3.5267,28.7099,-4.855,0,0,0
-0.3987,0.0203,0.9109,14.3206,32.4198,-1.5725,0,0,0
-0.4133,0.0215,0.8455,-0.229,25.542,0.3664,0,0,0
-0.427,0.0459,0.822,1.8931,18.9695,0.6947,0,0,0
-0.4165,0.05,0.8088,2.6641,13.2137,-1.7405,0,0,0
-0.4194,0.0459,0.8064,4.8321,5.5573,-4.6794,0,0,0
-0.4248,0.0437,0.8096,4.3969,-0.8779,-7.4733,0,0,0
-0.4226,0.0168,0.8457,3.5573,-6.0076,-8.7023,0,0,0
-0.4321,0.0042,0.8933,1.7176,-7.0458,-7.2977,0,0,0
-0.4395,-0.0017,0.9353,-0.7252,-5.2443,-5.3664,0,0,0
-0.4341,-0.0073,0.9536,-2.8168,-0.7023,-3.0611,0,0,0
-0.4275,-0.0127,0.9377,-3.4656,2.3817,-0.3664,0,0,0
-0.4287,-0.0029,0.906,-2.1603,2.0229,1.3359,0,0,0
-0.4343,0.0205,0.9021,-0.5191,-0.8244,0.855,0,0,0
-0.4309,0.022,0.9036,1.5267,-4.0992,-0.4351,0,0,0
-0.4246,0.0239,0.9192,3.2443,-7.2061,-1.8397,0,0,0
-0.4236,0.0281,0.9326,2.8702,-7.8779,-2.855,0,0,0
-0.425,0.0208,0.9487,2.1221,-6.8931,-2.916,0,0,0
-0.4263,0.0176,0.9534,0.6565,-4.687,-2.7252,0,0,0
-0.4304,0.0125,0.9482,-0.2595,-2.9313,-1.6336,0,0,0
-0.4382,0.0137,0.9546,-0.8244,-1.0611,-0.5954,0,0,0
-0.4329,0.0112,0.9465,-1.2214,0.1527,0.7023,0,0,0
-0.427,0.0188,0.929,-0.4427,0.2824,1.4351,0,0,0
-0.4233,0.0317,0.9211,-0.3817,-0.9542,1.4809,0,0,0
-0.4233,0.0317,0.9299,-1.0076,-2.5954,-0.084,0,0,0
-0.4287,0.0371,0.9639,-0.9237,-2.7176,-1.1221,0,0,0
-0.4219,0.0269,0.9592,-0.0534,-0.8244,-1.1908,0,0,0
-0.418,0.0254,0.9524,0.0916,0.8702,0.0763,0,0,0
-0.4204,0.0352,0.9314,0.8397,2.1374,0.5725,0,0,0
-0.4341,0.0383,0.9067,1.7939,0.8015,0.0229,0,0,0
-0.4236,0.0354,0.8916,2.2366,-2.0916,-0.7176,0,0,0
-0.4236,0.0327,0.9001,1.9618,-5.3435,-1.8321,0,0,0
-0.4326,0.0205,0.9016,1.8397,-7.6718,-2.3588,0,0,0
-0.4233,0.0134,0.906,1.3282,-9.8092,-1.8931,0,0,0
-0.4309,0.0061,0.916,1.3817,-11.4122,-0.5878,0,0,0
-0.4214,-0.0046,0.8877,2.1145,-14.2977,1.5344,0,0,0
-0.4216,0.0088,0.8684,2.7099,-19.2061,3.2366,0,0,0
-0.4084,-0.0342,0.8569,1.7252,-26.458,5.4504,0,0,0
-0.4243,-0.0159,0.7871,2.4351,-38.5802,11.2443,0,0,0
-0.418,0.0107,0.8086,3.4198,-52.1221,14.5649,0,0,0
-0.4236,0.0239,0.853,10.5649,-57.8092,14.7023,0,0,0
-0.4026,0.0669,0.8621,9.6107,-63.3969,11.9695,0,0,0
-0.3655,0.0554,0.9309,8.3664,-66.3664,9.8626,0,0,0
-0.3264,0.0559,0.9778,4.0687,-62.8931,8.4809,0,0,0
-0.3069,0.0776,1.0332,3.8397,-55.229,6.5115,0,0,0
-0.3115,0.083,1.1082,0.0992,-45.4122,5.7939,0,0,0
-0.3091,0.0806,1.1299,-3.4198,-31.687,4.0153,0,0,0
-0.3103,0.0791,1.1125,-5.4504,-19.9008,3.0229,0,0,0
-0.3088,0.0737,1.0796,-5.2672,-10.0382,2.9618,0,0,0
-0.2979,0.0706,1.0415,-5.7939,-4.145,1.9237,0,0,0
-0.3064,0.061,0.9934,-5.4656,-1.1221,0.5878,0,0,0
-0.3201,0.0461,0.9722,-4.3893,-2.2672,-0.8397,0,0,0
-0.3335,0.0361,0.97,-1.6641,-5.4046,-1.5115,0,0,0
-0.3464,0.0173,0.958,1.9924,-9.1603,-1.229,0,0,0
-0.343,0.0198,0.9629,5.313,-12.1603,0.5496,0,0,0
-0.3345,0.0168,0.9678,6.3893,-12.7405,2.2824,0,0,0
-0.323,0.0344,0.9844,6.1679,-12.2748,4.2519,0,0,0
-0.3108,0.05,1.0103,4.9313,-10.2824,5.0229,0,0,0
-0.301,0.0569,1.0005,5.2214,-8.542,5.3206,0,0,0
-0.302,0.075,0.9795,4.9542,-7.8626,5.1832,0,0,0
-0.3027,0.0723,0.9883,4.1069,-8.3817,3.7557,0,0,0
-0.3081,0.073,0.9934,4.4656,-8.6107,1.7252,0,0,0
-0.3096,0.0657,1.0017,3.7099,-8.1985,0.4351,0,0,0
-0.2935,0.053,1.0146,3.2977,-6.542,0.7252,0,0,0
-0.293,0.0667,0.999,2.2443,-3.9389,2.084,0,0,0
-0.2949,0.0757,1.0002,1.2595,-1.2672,2.4733,0,0,0
-0.2859,0.0815,0.9751,1.5115,0.687,1.8015,0,0,0
-0.2859,0.0859,0.9629,1.1069,1.3435,0.6641,0,0,0
-0.2859,0.0723,0.9138,3.1985,-2.1069,0.5267,0,0,0
-0.2869,0.0828,0.8896,4.3282,-7.9847,0.6107,0,0,0
-0.2979,0.0876,0.8699,3.8092,-14.9542,0.0687,0,0,0
-0.3125,0.0874,0.8972,4.1221,-20.9618,-2.1298,0,0,0
-0.2976,0.0801,0.9382,1.8779,-23.8855,-3.4046,0,0,0
-0.2886,0.0776,1.0012,-1.3053,-22.1221,-4.084,0,0,0
-0.2776,0.0806,1.0557,-4.6412,-14.9771,-3.6947,0,0,0
-0.2617,0.0808,1.0627,-7.7099,-6.7176,-2.6947,0,0,0
-0.2593,0.0779,1.0579,-9.5115,1.6489,-2.1527,0,0,0
-0.2639,0.072,1.0073,-8.4962,5.7252,-2.2366,0,0,0
-0.2739,0.0688,0.9614,-5.3511,4.5878,-2.5267,0,0,0
-0.2866,0.0688,0.9348,-1.5878,-1.0992,-3.9847,0,0,0
-0.2917,0.0715,0.9392,1.1679,-7.7176,-5.2672,0,0,0
-0.2864,0.0645,0.9451,3.1145,-12.7786,-5.9313,0,0,0
-0.2874,0.0571,0.9565,4.3511,-16.5344,-4.7939,0,0,0
-0.28,0.0466,0.9724,6.2748,-18.8397,-3.3893,0,0,0
-0.2773,0.0518,0.9331,9.0611,-22.2214,-1.1221,0,0,0
-0.2715,0.0715,0.8979,8.9466,-27.7634,-0.1756,0,0,0
-0.2708,0.0837,0.8862,6.8092,-34.5725,-0.7099,0,0,0
-0.2527,0.0811,0.8809,6.9771,-43.0076,-1.6947,0,0,0
-0.2588,0.0911,0.8948,7.5802,-52.5267,-1.6794,0,0,0
-0.2515,0.0825,0.9343,7.7786,-60.7481,-5.6183,0,0,0
-0.2178,0.0627,0.9985,10.0153,-62.2672,-6.9771,0,0,0
-0.2178,0.0654,0.9895,11.4733,-62.9008,-8.9466,0,0,0
-0.2485,0.0493,1.002,12.5802,-65.2672,-9.4962,0,0,0
-0.2183,-0.0056,0.989,10.542,-62.8092,-1.3893,0,0,0
-0.2014,0.0181,1.0056,6.5115,-60.2901,6.916,0,0,0
-0.1587,0.0413,1.0762,1.2443,-53.3359,9.8473,0,0,0
-0.1497,0.0601,1.1152,-3.7099,-42.2672,11.7405,0,0,0
-0.1316,0.0964,1.1309,-7.9847,-32.2672,11.4656,0,0,0
-0.1262,0.1111,1.1104,-11.6947,-22.1985,9.7023,0,0,0
-0.1172,0.1113,1.1116,-12.4275,-16.9542,6.9847,0,0,0
-0.1155,0.1079,1.1165,-12.9847,-12.4122,3.9008,0,0,0
-0.1287,0.1113,1.1387,-10.9542,-8.1069,1.2214,0,0,0
-0.1245,0.0854,1.1458,-7.3282,-2.4962,-0.9847,0,0,0
-0.1292,0.0818,1.1404,-3.771,2.5344,-1.7863,0,0,0
-0.1292,0.0759,1.1133,0.1145,7.6489,-1.6183,0,0,0
-0.1326,0.0742,1.0898,1.5725,11.4122,-1.0611,0,0,0
-0.1472,0.0916,1.0637,2.771,13.0763,-0.7328,0,0,0
-0.1453,0.092,1.041,2.8244,14.4122,-1.0,0,0,0
-0.1477,0.1013,1.0339,3.7023,13.7786,-2.3435,0,0,0
-0.146,0.1094,1.0298,3.4046,14.2595,-4.6336,0,0,0
-0.1472,0.1177,1.051,3.7252,14.8321,-6.8397,0,0,0
-0.1404,0.1211,1.0515,3.145,16.8015,-8.8931,0,0,0
-0.1482,0.1133,1.0544,2.5725,18.9924,-10.4809,0,0,0
-0.1482,0.0959,1.0413,2.1374,21.5496,-11.313,0,0,0
-0.1663,0.0894,1.0352,1.0076,23.1756,-12.2443,0,0,0
-0.1655,0.0808,1.043,-0.7252,24.1985,-11.8931,0,0,0
-0.1785,0.0894,1.0735,-1.9924,26.229,-10.4885,0,0,0
-0.1858,0.0813,1.0698,-1.2061,29.2443,-9.3664,0,0,0
-0.1846,0.082,1.0488,0.3206,31.9847,-8.5878,0,0,0
-0.1892,0.0776,1.03,0.626,32.4504,-7.7634,0,0,0
-0.1953,0.0803,1.0159,0.1145,33.2443,-7.7939,0,0,0
-0.2068,0.0916,1.0244,-1.4351,32.8015,-7.8855,0,0,0
-0.2158,0.1121,1.0598,-3.4809,34.8092,-8.0382,0,0,0
-0.2083,0.1042,1.0596,-6.4656,39.8473,-9.1145,0,0,0
-0.1926,0.0867,1.0249,-7.2443,42.7634,-8.229,0,0,0
-0.2012,0.0955,1.0054,-6.7099,44.2977,-7.7099,0,0,0
-0.2251,0.0959,0.9502,-5.7634,43.5954,-8.8702,0,0,0
-0.2517,0.0901,0.9023,-6.2061,38.8015,-10.771,0,0,0
-0.271,0.0818,0.8689,-5.1679,31.6489,-11.5573,0,0,0
-0.2822,0.0701,0.8682,-4.0763,23.6031,-12.2977,0,0,0
-0.2854,0.0532,0.8599,-0.771,15.4122,-11.3588,0,0,0
-0.2856,0.0439,0.8743,1.7939,8.0458,-10.0,0,0,0
-0.2979,0.0408,0.8828,3.1908,2.7481,-8.9313,0,0,0
-0.302,0.0354,0.9006,3.3664,-1.6641,-7.5878,0,0,0
-0.2996,0.0322,0.9099,2.626,-4.6641,-4.9237,0,0,0
-0.2842,0.0315,0.9275,0.1069,-5.2366,-1.9466,0,0,0
-0.2876,0.0356,0.948,-1.1145,-5.8473,0.1527,0,0,0
-0.2773,0.0457,0.9729,-1.6412,-4.9618,1.6412,0,0,0
-0.2756,0.0574,0.979,-2.4046,-4.1832,2.1145,0,0,0
-0.27,0.0688,0.9722,-2.626,-4.6336,1.9924,0,0,0
-0.2629,0.0764,0.9746,-3.0611,-4.5267,1.5802,0,0,0
-0.2644,0.0732,0.9636,-3.7939,-5.5725,0.7099,0,0,0
-0.2627,0.0652,0.9717,-3.4046,-6.8092,0.4122,0,0,0
-0.269,0.0601,0.9888,-2.7786,-7.6107,0.9313,0,0,0
-0.2712,0.0605,0.999,-0.9084,-7.2061,1.5802,0,0,0
-0.2588,0.0566,1.0112,1.6641,-7.0611,3.5573,0,0,0
-0.2546,0.0671,1.0085,3.9466,-6.855,4.5191,0,0,0
-0.2544,0.092,0.9929,3.8168,-6.8397,4.5191,0,0,0
-0.2561,0.1013,0.9851,2.4427,-6.7176,3.1298,0,0,0
-0.2498,0.0945,0.9897,-0.6107,-7.2366,1.7023,0,0,0
-0.2561,0.0901,1.0093,-2.5802,-6.3053,0.9389,0,0,0
-0.2551,0.085,1.0095,-2.6718,-5.7252,0.8473,0,0,0
-0.2505,0.0801,1.0181,-2.8397,-5.3817,0.7405,0,0,0
-0.2554,0.0864,1.0308,-3.687,-3.855,0.9237,0,0,0
-0.2534,0.0845,1.0173,-3.4046,-1.8702,0.4885,0,0,0
-0.251,0.0828,1.0198,-2.5802,-0.1145,0.2061,0,0,0
-0.2502,0.0781,0.9993,-2.084,-0.0534,0.3206,0,0,0
-0.2603,0.0767,0.9902,-1.2061,-0.8855,0.3511,0,0,0
-0.2639,0.0764,0.9949,-1.2748,-1.8626,0.1908,0,0,0
-0.2559,0.0791,0.9976,-2.3511,-2.6641,0.5191,0,0,0
-0.2502,0.0813,1.012,-2.1221,-1.5038,0.9847,0,0,0
-0.2507,0.0864,1.0215,-3.1298,-0.5267,0.9237,0,0,0
-0.2505,0.0842,1.0212,-2.7176,1.1679,0.8931,0,0,0
-0.2441,0.0913,1.0022,-1.2214,1.8092,0.8321,0,0,0
-0.25,0.094,0.9902,-0.2214,1.0229,0.2748,0,0,0
-0.2419,0.0933,0.9805,0.5878,-0.0458,-0.3511,0,0,0
-0.2451,0.0952,0.9639,0.916,-1.0076,-1.1603,0,0,0
-0.2485,0.0891,0.9583,0.5573,-2.1603,-1.6641,0,0,0
-0.2424,0.0928,0.9614,0.1298,-3.5954,-2.0076,0,0,0
-0.2424,0.0972,0.9866,-0.0687,-4.1908,-2.5038,0,0,0
-0.2458,0.116,1.0005,1.1298,-4.7939,-3.5038,0,0,0
-0.2351,0.1257,1.0161,3.2443,-4.9847,-5.7863,0,0,0
-0.2214,0.1482,1.0266,5.6565,-4.542,-8.9924,0,0,0
-0.2112,0.1572,1.0188,8.6718,-4.626,-13.6489,0,0,0
-0.2051,0.1699,1.0105,12.6718,-5.2595,-19.1679,0,0,0
-0.2075,0.186,1.0081,16.8855,-7.2595,-25.6718,0,0,0
-0.2031,0.1921,1.0435,20.8092,-8.7634,-32.6794,0,0,0
-0.1909,0.2078,1.0845,24.4351,-7.2748,-40.374,0,0,0
-0.1863,0.2102,1.1025,26.0153,-2.4198,-47.0763,0,0,0
-0.1875,0.2029,1.0825,26.9389,2.8779,-52.5725,0,0,0
-0.1987,0.1694,1.0696,25.5573,9.3206,-56.0992,0,0,0
-0.2183,0.1335,1.0481,23.4962,14.0229,-57.3511,0,0,0
-0.2549,0.113,1.0247,23.9084,16.9542,-56.9542,0,0,0
-0.2703,0.0771,0.9856,26.4046,16.4504,-57.3511,0,0,0
-0.2825,0.05,0.9519,25.1908,14.3511,-52.5725,0,0,0
-0.2964,0.0442,0.9355,24.8015,11.229,-47.229,0,0,0
-0.3137,0.0557,0.9077,23.9924,7.6565,-42.9237,0,0,0
-0.2991,0.0662,0.916,19.687,4.8855,-38.9847,0,0,0
-0.3022,0.0652,0.9329,13.9847,3.9847,-35.2672,0,0,0
-0.3074,0.0623,0.9568,8.1756,4.916,-32.3817,0,0,0
-0.3103,0.0698,0.978,3.2595,7.542,-29.8931,0,0,0
-0.3054,0.0461,0.9832,-1.5725,9.8092,-25.4656,0,0,0
-0.3035,0.0435,0.9854,-4.2824,12.7863,-20.0458,0,0,0
-0.3066,0.0562,0.9761,-2.8244,14.5573,-15.313,0,0,0
-0.2935,0.0784,0.9687,-0.7176,14.5496,-12.9237,0,0,0
-0.2844,0.1047,0.9509,1.5725,13.0305,-12.6336,0,0,0
-0.2844,0.1338,0.9453,4.9084,9.0,-14.0534,0,0,0
-0.2803,0.1555,0.9514,7.0,4.9542,-16.8855,0,0,0
-0.2756,0.1602,0.96,9.2214,2.0992,-20.6565,0,0,0
-0.2686,0.1572,0.9763,10.2824,1.4504,-24.0916,0,0,0
-0.271,0.1475,0.9705,9.7786,2.0229,-27.0611,0,0,0
-0.2751,0.1448,0.9587,8.6794,2.5878,-29.1069,0,0,0
-0.2832,0.1433,0.9717,6.5267,3.374,-29.9771,0,0,0
-0.2927,0.1377,0.9666,4.4427,3.7786,-31.0229,0,0,0
-0.2976,0.127,0.95,3.6412,3.7328,-31.9237,0,0,0
-0.3066,0.1091,0.9436,1.8015,3.1832,-32.2824,0,0,0
-0.3184,0.0867,0.9365,0.0305,1.6412,-30.916,0,0,0
-0.3291,0.075,0.9519,-2.4809,-0.1603,-28.9771,0,0,0
-0.3286,0.072,0.9858,-4.084,-0.5344,-26.7557,0,0,0
-0.3315,0.0688,1.0061,-5.7023,1.0916,-24.5878,0,0,0
-0.3259,0.0635,1.0242,-5.916,4.0382,-22.2672,0,0,0
-0.3264,0.0674,1.0186,-4.9008,7.5115,-19.8702,0,0,0
-0.3293,0.0703,1.0105,-2.6565,9.6641,-17.3969,0,0,0
-0.3198,0.0808,0.9915,-0.0687,10.6183,-15.5496,0,0,0
-0.324,0.0942,0.9839,1.9389,10.1603,-15.2137,0,0,0
-0.3154,0.1125,0.9753,2.458,9.7557,-17.3588,0,0,0
-0.3152,0.1221,0.9844,2.5191,9.5038,-18.7863,0,0,0
-0.3113,0.1152,0.9939,1.4885,9.1679,-20.542,0,0,0
-0.3164,0.1274,1.021,-0.0763,10.7634,-21.9695,0,0,0
-0.322,0.1306,1.0293,-2.9695,14.5191,-23.2824,0,0,0
-0.3142,0.1321,1.0515,-4.8168,20.313,-24.7099,0,0,0
-0.3081,0.1235,1.0505,-5.3893,26.9771,-25.9313,0,0,0
-0.3281,0.1047,1.03,-5.2519,31.7863,-26.6947,0,0,0
-0.333,0.1021,1.0049,-5.1908,34.7405,-27.313,0,0,0
-0.3491,0.0769,1.0042,-5.1298,35.855,-27.6794,0,0,0
-0.3655,0.0857,0.9739,-5.916,36.2977,-27.4198,0,0,0
-0.3706,0.0708,0.9639,-5.6489,36.6336,-25.8092,0,0,0
-0.3704,0.0742,0.9429,-4.3664,35.8931,-24.8397,0,0,0
-0.3757,0.0811,0.9526,-2.3435,34.687,-24.8473,0,0,0
-0.3848,0.0754,0.9331,0.6183,33.145,-25.2824,0,0,0
-0.3906,0.0627,0.8921,2.2824,30.9618,-25.7176,0,0,0
-0.4082,0.052,0.8757,2.0,26.9466,-25.5878,0,0,0
-0.4163,0.0427,0.8765,1.4122,23.0305,-24.374,0,0,0
-0.4148,0.042,0.8745,1.3435,18.8931,-22.1603,0,0,0
-0.4258,0.0571,0.9055,2.7328,16.1145,-20.6489,0,0,0
-0.418,0.0723,0.9116,2.7176,14.4504,-20.6565,0,0,0
-0.4023,0.0659,0.9133,2.7939,14.0382,-20.4351,0,0,0
-0.4065,0.0737,0.9185,3.6489,13.1069,-20.8092,0,0,0
-0.4102,0.0793,0.925,3.6641,12.5267,-22.0992,0,0,0
-0.4077,0.0806,0.9358,3.6031,12.2901,-23.1069,0,0,0
-0.4106,0.0803,0.9387,3.0382,12.8779,-24.2137,0,0,0
-0.4214,0.0742,0.9446,3.0916,13.9084,-25.2443,0,0,0
-0.4368,0.0669,0.9324,2.855,14.9389,-25.6947,0,0,0
-0.4436,0.0554,0.9084,2.8779,15.2824,-25.084,0,0,0
-0.4478,0.063,0.9019,2.1603,14.6489,-23.8931,0,0,0
-0.4446,0.0593,0.9153,1.3053,14.3435,-23.3511,0,0,0
-0.4434,0.0608,0.9072,1.916,14.3817,-24.0076,0,0,0
-0.4504,0.0605,0.8984,2.687,13.3817,-24.5725,0,0,0
-0.4473,0.0576,0.8962,2.5496,11.9466,-25.145,0,0,0
-0.4526,0.0676,0.9097,2.229,10.4733,-25.6412,0,0,0
-0.4443,0.0742,0.9226,2.1985,10.2443,-26.5725,0,0,0
-0.4475,0.0669,0.936,2.8015,11.2595,-27.626,0,0,0
-0.4456,0.0566,0.9182,4.8168,12.9313,-28.5649,0,0,0
-0.457,0.0417,0.895,5.1985,13.3435,-28.145,0,0,0
-0.4646,0.0493,0.8655,5.3511,10.9313,-27.855,0,0,0
-0.4712,0.0562,0.8606,4.1298,7.7634,-27.6031,0,0,0
-0.4692,0.0618,0.8782,2.5878,5.0458,-28.2214,0,0,0
-0.4563,0.0659,0.8994,1.0,4.084,-29.3817,0,0,0
-0.449,0.0752,0.9407,-0.5573,4.9237,-31.2595,0,0,0
-0.4458,0.0693,0.958,-0.9542,8.0229,-32.6947,0,0,0
-0.4504,0.0613,0.9568,-0.6183,11.4275,-33.9389,0,0,0
-0.4604,0.0381,0.927,0.7786,14.6794,-34.9313,0,0,0
-0.4702,0.0342,0.896,1.3817,15.9313,-34.6565,0,0,0
-0.4763,0.0237,0.8774,0.7557,14.8015,-34.3817,0,0,0
-0.4817,0.0271,0.8892,0.5878,13.0153,-34.0,0,0,0
-0.4917,0.0132,0.8887,1.1603,11.5954,-33.8702,0,0,0
-0.4875,0.0139,0.9194,2.1756,11.0382,-33.5802,0,0,0
-0.4861,0.0042,0.9338,4.7786,11.8321,-32.8779,0,0,0
-0.4907,-0.0037,0.9277,6.9389,13.6412,-32.3359,0,0,0
-0.4932,-0.0168,0.9016,8.8397,15.1145,-30.7863,0,0,0
-0.501,-0.0269,0.8623,8.4198,15.1756,-29.145,0,0,0
-0.509,-0.009,0.8311,6.1298,13.5038,-27.9695,0,0,0
-0.5105,-0.0078,0.8318,2.3511,11.2366,-27.0458,0,0,0
-0.5198,-0.0068,0.8511,0.1985,9.1221,-26.5802,0,0,0
-0.5181,-0.019,0.8645,-1.3588,8.0916,-26.2977,0,0,0
-0.512,-0.0234,0.8906,-1.7557,7.6489,-24.7099,0,0,0
-0.511,-0.02,0.9031,-1.6031,9.1679,-23.9084,0,0,0
-0.5085,-0.0298,0.9087,-0.145,11.4427,-22.9084,0,0,0
-0.5222,-0.0417,0.8823,0.626,13.3969,-21.4351,0,0,0
-0.5339,-0.0537,0.844,-0.2443,12.4656,-19.7252,0,0,0
-0.5532,-0.0681,0.8154,-0.8015,9.8168,-17.1145,0,0,0
-0.5613,-0.0759,0.8083,-1.7252,5.6794,-13.9389,0,0,0
-0.552,-0.0867,0.8274,-2.4504,1.0153,-10.6794,0,0,0
-0.5452,-0.0771,0.8464,-2.8473,-0.4885,-7.3511,0,0,0
-0.5364,-0.0647,0.8535,-4.0534,-1.2214,-4.4656,0,0,0
-0.5278,-0.0659,0.8694,-4.3511,-0.4122,-2.2214,0,0,0
-0.5237,-0.0554,0.8726,-4.9084,-0.2901,-0.0534,0,0,0
-0.5156,-0.0398,0.8733,-5.2901,-0.6947,0.7481,0,0,0
-0.5115,-0.0269,0.8843,-3.3817,-1.4656,0.7939,0,0,0
-0.5242,-0.0098,0.9023,-0.8473,-2.3435,-0.5038,0,0,0
-0.5112,-0.0059,0.9038,1.0382,-2.9389,-1.6412,0,0,0
-0.5081,-0.0093,0.9075,1.8626,-2.7328,-2.229,0,0,0
-0.5076,-0.0103,0.8953,2.0458,-1.4122,-2.2214,0,0,0
-0.4998,0.0007,0.8994,0.1985,0.0076,-2.7176,0,0,0
-0.5005,0.012,0.9004,-1.687,1.7023,-3.229,0,0,0
-0.4944,0.0376,0.9092,-2.5573,3.1145,-4.7023,0,0,0
-0.4915,0.0605,0.9109,-1.5115,4.0611,-7.0687,0,0,0
-0.4885,0.0684,0.9121,0.1603,4.2519,-10.6107,0,0,0
-0.4895,0.0598,0.9021,1.5802,4.0382,-14.855,0,0,0
-0.501,0.0356,0.8826,2.7634,3.7023,-18.6565,0,0,0
-0.5259,-0.0029,0.8652,2.1145,2.9084,-20.1832,0,0,0
-0.5481,-0.0408,0.8606,0.5115,2.4504,-19.5267,0,0,0
-0.5601,-0.0901,0.8572,-0.9313,2.084,-16.4809,0,0,0
-0.5823,-0.1177,0.845,-1.7557,1.5038,-10.8321,0,0,0
-0.5894,-0.1509,0.8291,-2.0687,0.8473,-3.6947,0,0,0
-0.5908,-0.1614,0.8032,-2.542,-0.9924,3.7863,0,0,0
-0.5933,-0.1687,0.7971,-4.7634,-3.7863,10.7023,0,0,0
-0.5759,-0.1611,0.8171,-7.0229,-6.1221,16.9695,0,0,0
-0.5649,-0.1536,0.8372,-9.4809,-6.1756,22.6412,0,0,0
-0.5508,-0.1506,0.8628,-11.1756,-5.7634,27.8931,0,0,0
-0.5483,-0.1438,0.8843,-12.8321,-5.0153,32.8321,0,0,0
-0.5515,-0.1306,0.8853,-11.9924,-4.3664,38.229,0,0,0
-0.5452,-0.1143,0.8755,-10.7176,-5.4656,42.3511,0,0,0
-0.5496,-0.0918,0.8584,-9.3511,-7.4198,46.5878,0,0,0
-0.5481,-0.0796,0.8586,-9.8015,-10.5191,49.374,0,0,0
-0.541,-0.0688,0.8538,-11.3511,-13.0534,52.1298,0,0,0
-0.5281,-0.0513,0.8708,-13.6031,-14.5725,54.7939,0,0,0
-0.519,-0.031,0.8899,-17.4351,-15.3206,56.8015,0,0,0
-0.5115,-0.0103,0.9119,-20.7099,-14.2519,58.3817,0,0,0
-0.5159,-0.0183,0.9011,-25.145,-11.9389,59.2672,0,0,0
-0.5178,-0.0256,0.8872,-26.8473,-11.1908,61.1756,0,0,0
-0.5024,-0.0259,0.8809,-26.6947,-12.4656,63.9466,0,0,0
-0.4846,-0.0105,0.8938,-25.5802,-13.916,65.5496,0,0,0
-0.4707,0.0159,0.9072,-22.8779,-14.7176,65.626,0,0,0
-0.4468,0.0334,0.9468,-20.3435,-13.8321,63.6641,0,0,0
-0.4358,0.0559,0.97,-17.9618,-11.4885,61.2672,0,0,0
-0.4434,0.0525,0.9714,-16.0687,-8.3359,58.6412,0,0,0
-0.4446,0.0583,0.9492,-14.4427,-6.0534,57.3511,0,0,0
-0.449,0.0618,0.9175,-13.3664,-5.2061,56.2443,0,0,0
-0.468,0.0537,0.8945,-12.5954,-6.0458,55.2672,0,0,0
-0.4802,0.043,0.8574,-11.9924,-8.5802,54.8779,0,0,0
-0.4773,0.0398,0.835,-11.1069,-12.3435,55.0763,0,0,0
-0.4736,0.0559,0.8577,-13.8931,-17.0076,55.7634,0,0,0
-0.4668,0.052,0.9006,-19.0382,-16.6718,55.5649,0,0,0
-0.4517,0.0544,0.9241,-21.6565,-14.2748,56.1527,0,0,0
-0.4399,0.0745,0.9111,-22.1832,-11.374,56.542,0,0,0
-0.4302,0.0872,0.8909,-21.0763,-10.4275,55.6183,0,0,0
-0.4299,0.0974,0.8628,-20.7023,-12.1145,52.9542,0,0,0
-0.4395,0.0906,0.844,-20.6718,-15.3435,49.1069,0,0,0
-0.4463,0.0762,0.8381,-19.6031,-20.2061,46.229,0,0,0
-0.439,0.0803,0.8472,-18.5191,-25.4885,44.7176,0,0,0
-0.4136,0.0955,0.9155,-18.8168,-27.5344,44.0,0,0,0
-0.4082,0.1106,0.9609,-21.6107,-24.5114,41.9924,0,0,0
-0.4146,0.1018,0.989,-26.0916,-17.6489,39.3664,0,0,0
-0.4138,0.0789,0.9829,-27.5878,-11.2672,38.4198,0,0,0
-0.4182,0.0496,0.9719,-29.229,-6.0611,38.4198,0,0,0
-0.4221,0.0439,0.9446,-26.2672,-3.855,39.7328,0,0,0
-0.4224,0.0659,0.9146,-21.3511,-4.7634,40.1832,0,0,0
-0.4177,0.094,0.9067,-16.5573,-8.3359,38.8244,0,0,0
-0.4099,0.1162,0.8928,-13.6641,-11.6641,35.3282,0,0,0
-0.405,0.1113,0.9141,-14.0687,-14.458,30.8092,0,0,0
-0.4111,0.0984,0.9458,-17.1832,-14.2595,27.2672,0,0,0
-0.4177,0.0762,0.9707,-21.8855,-12.1832,26.1298,0,0,0
-0.417,0.0654,0.9956,-26.2595,-8.1298,27.6489,0,0,0
-0.4119,0.0732,1.0132,-29.3817,-2.1374,29.0534,0,0,0
-0.3977,0.0903,1.0171,-29.0534,3.4733,28.6336,0,0,0
-0.3931,0.1199,1.0193,-29.5038,8.6718,25.2748,0,0,0
-0.3984,0.1367,1.0129,-29.8015,12.7481,19.6336,0,0,0
-0.4053,0.1357,1.0125,-32.7481,15.5954,13.2519,0,0,0
-0.408,0.1094,1.012,-37.2443,20.8015,6.8779,0,0,0
-0.4229,0.0808,1.0139,-44.458,27.7405,3.0153,0,0,0
-0.4358,0.0313,1.0005,-49.5038,32.6718,3.6412,0,0,0
-0.4653,0.0081,0.9822,-50.4275,36.916,6.5802,0,0,0
-0.4675,0.0166,0.9675,-52.7405,40.2366,9.3435,0,0,0
-0.4595,0.0127,0.9626,-55.7252,42.2061,10.9389,0,0,0
-0.457,0.0132,0.9592,-56.5496,43.9542,11.8168,0,0,0
-0.4597,0.011,0.9426,-55.0916,44.0458,11.0687,0,0,0
-0.4724,-0.0015,0.9448,-51.9924,43.7939,9.0458,0,0,0
-0.488,-0.0168,0.9243,-48.3588,43.0611,8.1298,0,0,0
-0.4973,-0.0457,0.9187,-46.542,41.8779,8.4504,0,0,0
-0.5103,-0.0625,0.917,-46.1221,40.8321,11.1527,0,0,0
-0.52,-0.0598,0.8855,-45.1908,41.916,14.0458,0,0,0
-0.5071,-0.085,0.8877,-46.7634,41.9618,16.626,0,0,0
-0.5171,-0.0693,0.8984,-45.1603,42.5725,18.4198,0,0,0
-0.533,-0.0698,0.874,-41.7634,43.3664,18.8702,0,0,0
-0.5413,-0.0718,0.8445,-36.7939,41.9389,19.3053,0,0,0
-0.5486,-0.0896,0.8374,-32.4733,39.7328,19.9847,0,0,0
-0.5586,-0.1174,0.8174,-29.4962,36.8626,21.1908,0,0,0
-0.5671,-0.144,0.8059,-29.8015,34.1985,24.1145,0,0,0
-0.5818,-0.1379,0.78,-31.2672,30.7634,28.0611,0,0,0
-0.5813,-0.126,0.7676,-33.5267,28.084,31.8244,0,0,0
-0.5754,-0.1057,0.7637,-35.6031,24.687,34.1908,0,0,0
-0.5781,-0.113,0.791,-37.8702,21.4504,35.3511,0,0,0
-0.5884,-0.1045,0.7996,-36.2595,19.3511,35.4275,0,0,0
-0.584,-0.1194,0.8042,-35.7786,16.4962,35.8702,0,0,0
-0.5886,-0.0984,0.8066,-34.2977,14.6336,36.4122,0,0,0
-0.5723,-0.0767,0.842,-38.1756,24.8931,30.0382,0,0,0
-0.5691,-0.0964,0.8179,-31.7405,19.6489,33.4962,0,0,0
-0.5957,-0.0371,0.7534,-28.8015,10.2137,32.3588,0,0,0
-0.5847,-0.0723,0.8306,-28.9542,6.7176,29.2595,0,0,0
-0.5959,-0.0977,0.7986,-23.9313,5.229,28.8168,0,0,0
-0.5977,-0.0791,0.7991,-20.8092,2.2977,28.7252,0,0,0
-0.5886,-0.0781,0.8074,-17.7023,1.4046,28.6489,0,0,0
-0.5891,-0.0813,0.8096,-15.3053,0.5191,27.5725,0,0,0
-0.6023,-0.0942,0.8196,-14.6489,-0.3969,27.0382,0,0,0
-0.606,-0.0732,0.7993,-13.8321,-0.5038,27.6031,0,0,0
-0.5803,-0.0601,0.8066,-13.9237,-1.0,27.771,0,0,0
-0.574,-0.0479,0.8228,-15.4046,-0.2672,25.9008,0,0,0
-0.5852,-0.0647,0.8274,-17.3206,0.313,23.1145,0,0,0
-0.6047,-0.0693,0.8179,-17.5802,0.7863,21.6412,0,0,0
-0.6018,-0.0713,0.7979,-16.9466,0.5267,22.145,0,0,0
-0.5879,-0.0554,0.8152,-14.8168,-0.3588,23.0,0,0,0
-0.5713,-0.0249,0.8228,-10.855,-0.9008,21.7252,0,0,0
-0.5659,-0.0178,0.854,-7.3817,-0.5802,17.8015,0,0,0
-0.5806,-0.0256,0.856,-4.9008,0.771,12.7328,0,0,0
-0.6021,-0.0833,0.8428,-6.3053,2.5573,9.9695,0,0,0
-0.6267,-0.1526,0.823,-10.4656,4.8244,12.3435,0,0,0
-0.6614,-0.1863,0.7969,-14.4656,6.7023,20.1069,0,0,0
-0.6521,-0.1597,0.7659,-16.4733,7.2061,30.0305,0,0,0
-0.6089,-0.1213,0.7546,-15.5038,5.5344,36.6641,0,0,0
-0.6038,-0.0061,0.7522,-12.0229,0.7481,37.0611,0,0,0
-0.5769,0.0376,0.7769,-8.9847,-2.2748,30.3588,0,0,0
-0.5608,0.0767,0.7566,-3.9542,-6.5191,20.4427,0,0,0
-0.5481,0.0974,0.7664,0.2672,-10.2672,10.3206,0,0,0
-0.5422,0.0945,0.7864,5.1679,-13.0534,1.0763,0,0,0
-0.5413,0.0852,0.8105,10.4962,-14.8168,-6.4656,0,0,0
-0.5503,0.064,0.8259,14.0229,-14.9542,-12.7481,0,0,0
-0.5535,0.0413,0.832,16.6031,-13.8015,-16.6641,0,0,0
-0.5596,0.0049,0.8113,16.9466,-13.3893,-18.4962,0,0,0
-0.5737,-0.0134,0.8064,16.5725,-13.5649,-19.084,0,0,0
-0.5737,-0.0205,0.8118,17.7939,-15.1603,-18.7023,0,0,0
-0.5703,-0.0103,0.8152,23.4962,-18.1069,-18.8626,0,0,0
-0.5535,0.0132,0.7981,34.0992,-24.458,-20.0305,0,0,0
-0.5386,0.0657,0.791,44.1832,-33.7786,-24.9924,0,0,0
-0.5266,0.1135,0.8101,56.1908,-41.7481,-34.2519,0,0,0
-0.5049,0.1248,0.8428,67.8779,-48.1832,-44.8473,0,0,0
-0.4792,0.0979,0.8411,77.5267,-53.3817,-54.7939,0,0,0
-0.48,0.0603,0.8257,82.9924,-57.8397,-61.5573,0,0,0
-0.4998,0.0293,0.7937,84.5344,-61.8931,-65.9084,0,0,0
-0.5269,-0.0007,0.7864,79.626,-66.5725,-66.0382,0,0,0
-0.5576,-0.042,0.8042,67.7939,-67.8779,-63.3359,0,0,0
-0.5771,-0.0686,0.8242,56.0534,-65.771,-55.7557,0,0,0
-0.5647,-0.0759,0.8333,46.2443,-62.7557,-46.0916,0,0,0
-0.5225,-0.0464,0.8318,37.3206,-59.5115,-36.3435,0,0,0
-0.4731,0.0034,0.8335,26.6489,-59.8626,-30.7023,0,0,0
-0.4495,0.0059,0.9285,18.7328,-59.3435,-30.2061,0,0,0
-0.4553,-0.0117,0.9766,10.4962,-54.4885,-32.8321,0,0,0
-0.478,-0.0364,0.9966,9.0382,-50.0763,-32.7939,0,0,0
-0.4844,-0.0659,1.0005,10.7939,-45.1679,-28.6718,0,0,0
-0.467,-0.0725,0.9712,13.855,-40.3817,-21.5267,0,0,0
-0.4568,-0.0549,0.9243,14.7557,-37.6412,-16.0229,0,0,0
-0.4553,-0.0591,0.9084,12.5878,-37.9924,-12.7939,0,0,0
-0.4619,-0.0642,0.917,10.7634,-39.8092,-11.2061,0,0,0
-0.4468,-0.0957,0.9326,9.9847,-43.0992,-9.687,0,0,0
-0.4355,-0.0754,0.9995,12.0076,-42.8397,-4.916,0,0,0
-0.4321,-0.0508,1.0784,9.9466,-36.2366,-1.9389,0,0,0
-0.4209,-0.033,1.0693,9.2366,-26.855,0.8931,0,0,0
-0.3997,-0.0105,1.0664,8.2519,-17.9847,3.0076,0,0,0
-0.3804,-0.0103,1.0447,11.2214,-11.6183,4.084,0,0,0
-0.3953,0.0054,0.9927,14.5573,-10.9771,3.0,0,0,0
-0.4109,0.0012,0.947,18.5649,-14.6794,2.374,0,0,0
-0.4084,0.0002,0.9219,22.3511,-20.7939,3.0,0,0,0
-0.396,-0.0015,0.9634,22.4275,-24.2214,4.3359,0,0,0
-0.3901,0.0037,0.9871,20.4885,-22.9847,6.1221,0,0,0
-0.3843,0.0117,0.9668,17.0229,-19.8397,8.4351,0,0,0
-0.3677,0.0146,0.9336,13.9542,-18.374,11.084,0,0,0
-0.3752,0.0405,0.9016,11.0916,-19.6718,12.5115,0,0,0
-0.3687,0.0522,0.9031,7.313,-22.7481,12.4275,0,0,0
-0.3523,0.0754,0.9148,1.7634,-25.1985,10.3817,0,0,0
-0.3376,0.0852,0.9609,-3.8702,-24.3817,8.2366,0,0,0
-0.332,0.0696,0.9929,-9.2366,-20.5496,6.5191,0,0,0
-0.3313,0.0652,1.0115,-12.5725,-16.5573,6.145,0,0,0
-0.345,0.0364,0.9937,-14.9618,-12.9847,7.3664,0,0,0
-0.3542,0.0271,1.0012,-12.4809,-12.1679,9.7176,0,0,0
-0.3533,0.0222,0.9985,-7.0382,-12.8626,11.7023,0,0,0
-0.3577,0.0305,0.9893,0.8779,-15.0611,13.1527,0,0,0
-0.3455,0.0349,0.9878,8.1985,-18.4733,14.1603,0,0,0
-0.335,0.0471,0.9812,13.0611,-20.8626,14.8855,0,0,0
-0.3201,0.0637,0.9856,15.5649,-22.5191,15.7481,0,0,0
-0.3145,0.0935,0.9993,14.7099,-21.1221,15.5267,0,0,0
-0.301,0.1018,1.0005,12.8779,-20.1221,14.7328,0,0,0
-0.29,0.0764,0.9785,9.8244,-19.9695,11.374,0,0,0
-0.2942,0.0999,1.0154,9.5038,-18.3435,11.9542,0,0,0
-0.2966,0.0964,0.9829,5.2672,-15.8931,10.7939,0,0,0
-0.3081,0.0837,0.9797,4.9847,-17.3511,11.313,0,0,0
-0.3164,0.0898,0.981,3.916,-17.626,11.3969,0,0,0
-0.3159,0.0874,1.0117,3.7481,-18.0916,10.374,0,0,0
-0.2971,0.0935,1.0232,4.5573,-16.5191,11.5954,0,0,0
-0.3008,0.084,1.0085,6.3435,-15.8397,11.7557,0,0,0
-0.304,0.0913,1.0088,10.9618,-18.0687,12.542,0,0,0
-0.3174,0.0945,0.978,14.4427,-21.2366,13.4962,0,0,0
-0.3096,0.0857,1.0046,21.0611,-24.2672,13.626,0,0,0
-0.3037,0.0884,0.9963,22.1985,-26.5344,13.4962,0,0,0
-0.3228,0.0918,0.9883,23.4275,-31.9695,15.1527,0,0,0
-0.2393,0.0969,0.9919,20.145,-32.9084,11.9771,0,0,0
-0.304,0.1208,1.0249,19.2137,-38.7863,20.0458,0,0,0
-0.2656,0.1382,1.095,19.1069,-35.7481,20.0305,0,0,0
-0.2529,0.1597,1.0693,14.2595,-31.2061,17.9313,0,0,0
-0.2515,0.1663,1.0757,11.8779,-29.229,14.2214,0,0,0
-0.2405,0.1592,1.0977,9.0458,-24.5802,11.1527,0,0,0
-0.2375,0.1379,1.0854,5.8397,-19.3359,9.0763,0,0,0
-0.2517,0.1436,1.0854,4.0,-16.7863,9.6947,0,0,0
-0.2756,0.1521,1.0432,3.9466,-14.6641,10.0611,0,0,0
-0.2607,0.1519,1.019,2.626,-15.0687,9.9924,0,0,0
-0.2361,0.1555,1.0012,2.542,-16.8092,10.855,0,0,0
-0.218,0.146,0.9424,0.626,-17.9771,10.9924,0,0,0
-0.2151,0.1392,0.8787,-0.0992,-23.771,11.6794,0,0,0
-0.2185,0.177,0.8276,-4.3817,-32.3282,10.4427,0,0,0
-0.2195,0.1833,0.8621,-1.4733,-41.6794,8.3511,0,0,0
-0.186,0.1553,0.9038,-0.3817,-46.9008,8.5725,0,0,0
-0.179,0.1624,0.9692,1.1679,-49.3664,8.1374,0,0,0
-0.1902,0.156,1.0251,2.5344,-47.5344,9.3359,0,0,0
-0.1641,0.1462,0.9771,2.5802,-44.5573,7.8779,0,0,0
-0.1602,0.1306,0.9736,-0.5038,-40.9542,7.2672,0,0,0
-0.1594,0.113,0.9585,-2.8473,-36.9084,7.0687,0,0,0
-0.1753,0.1211,0.9631,-5.3206,-34.4122,7.7634,0,0,0
-0.1594,0.1047,0.9656,-7.5344,-32.0687,8.3588,0,0,0
-0.1602,0.1001,0.9731,-7.8015,-31.0382,10.2366,0,0,0
-0.1602,0.1021,0.9768,-5.0,-30.6565,11.3053,0,0,0
-0.158,0.0974,0.9475,-1.7099,-31.5802,11.2443,0,0,0
-0.1604,0.0981,0.9434,0.7023,-34.6336,11.9389,0,0,0
-0.1404,0.0957,0.9373,4.0611,-38.0687,13.4122,0,0,0
-0.1191,0.0886,0.9392,6.5878,-42.2672,15.6412,0,0,0
-0.1089,0.1216,0.978,7.5115,-43.6031,17.0382,0,0,0
-0.0916,0.1316,1.0125,8.7176,-44.2443,18.1374,0,0,0
-0.0635,0.1467,1.019,9.229,-42.4275,19.1603,0,0,0
-0.0515,0.1489,1.0159,8.5496,-39.8626,19.2595,0,0,0
-0.0305,0.1387,0.9937,10.687,-38.7481,20.6565,0,0,0
-0.0242,0.1594,0.9741,10.6794,-40.1756,22.1069,0,0,0
-0.0249,0.1995,0.9878,9.8397,-42.3206,22.0916,0,0,0
0.0073,0.2241,1.0078,8.0076,-42.0763,20.9237,0,0,0
0.0388,0.2327,0.9973,4.8244,-40.7481,18.5038,0,0,0
0.0408,0.2322,1.0015,1.9313,-38.687,15.1069,0,0,0
0.0354,0.2283,1.0146,-0.1069,-37.1985,12.084,0,0,0
0.0542,0.2266,1.0576,-2.3817,-33.7863,9.8015,0,0,0
0.0732,0.2124,1.0469,-4.6565,-29.3511,10.1679,0,0,0
0.0947,0.2185,1.043,-7.1374,-25.9237,11.1221,0,0,0
0.0981,0.2488,1.0549,-9.0916,-21.3893,10.2137,0,0,0
0.1038,0.2683,1.0659,-10.855,-16.6794,7.1527,0,0,0
0.1177,0.2622,1.0681,-13.1145,-11.4046,3.1145,0,0,0
0.1211,0.2375,1.0435,-15.145,-6.2137,-0.6947,0,0,0
0.1077,0.228,1.0193,-16.7863,-2.9466,-4.0153,0,0,0
0.0911,0.2146,1.0095,-19.0229,-1.3664,-6.2061,0,0,0
0.0862,0.2056,1.0393,-20.1985,0.5573,-7.1832,0,0,0
0.0874,0.1897,1.0713,-17.4198,4.2137,-7.5344,0,0,0
0.0803,0.1909,1.0776,-11.1756,8.6947,-8.0229,0,0,0
0.0857,0.1794,1.0024,-4.4198,10.9771,-8.084,0,0,0
0.0825,0.179,0.9033,-4.8626,8.6718,-9.7481,0,0,0
0.0557,0.1729,0.8948,-8.0,3.0458,-13.1374,0,0,0
0.0308,0.1584,0.9326,-12.7557,-2.1985,-16.0992,0,0,0
0.0117,0.1226,1.0198,-12.9695,-4.9542,-17.3359,0,0,0
0.0002,0.0942,1.0859,-10.0687,-3.0611,-15.8702,0,0,0
-0.0054,0.0669,1.1118,-5.9237,1.7099,-12.1908,0,0,0
-0.0032,0.0654,1.0745,-1.8626,6.0229,-7.6565,0,0,0
0.0027,0.0806,1.0146,0.6565,7.0687,-4.374,0,0,0
-0.0144,0.1021,0.99,1.8015,5.5115,-2.771,0,0,0
-0.0171,0.116,0.9905,2.4122,1.6336,-2.8931,0,0,0
-0.0061,0.1135,1.0049,3.6794,-1.9618,-2.8626,0,0,0
-0.0061,0.1155,1.0308,5.313,-4.0992,-2.855,0,0,0
0.0049,0.124,1.0347,6.0229,-4.5954,-2.374,0,0,0
0.0054,0.1394,1.032,4.5573,-3.8397,-1.5954,0,0,0
0.0054,0.155,1.0474,2.9618,-3.2672,-1.5115,0,0,0
0.0051,0.1626,1.0615,3.0153,-1.8168,-2.2977,0,0,0
0.0203,0.1536,1.0261,3.9618,-1.4046,-3.1832,0,0,0
0.0181,0.1628,0.9868,3.3817,-2.2137,-4.3282,0,0,0
0.0054,0.1499,0.9768,0.5954,-4.687,-4.9313,0,0,0
0.0015,0.1438,1.0095,-2.4046,-6.5115,-4.0611,0,0,0
-0.0029,0.1326,1.0449,-4.8473,-6.4504,-2.4122,0,0,0
0.0059,0.1265,1.0615,-4.8855,-4.1985,-0.6412,0,0,0
0.0117,0.1313,1.0505,-3.8397,-1.8931,1.458,0,0,0
0.0159,0.1431,1.0417,-2.3282,-1.1603,2.0382,0,0,0
0.0237,0.1589,1.032,-1.4962,-1.6794,2.0916,0,0,0
0.0339,0.1763,1.031,-0.5496,-2.1298,0.5496,0,0,0
0.0371,0.1724,1.0327,-0.0534,-2.5038,-1.0,0,0,0
0.0364,0.1638,1.0103,-0.0458,-2.6183,-2.5344,0,0,0
0.031,0.158,1.0105,-1.3588,-2.2977,-2.8168,0,0,0
0.0256,0.1511,1.0222,-2.9008,-2.2748,-2.5496,0,0,0
0.0315,0.1433,1.0388,-3.4427,-1.0611,-1.5954,0,0,0
0.0356,0.1494,1.0342,-3.771,0.3817,-1.3511,0,0,0
0.0347,0.1487,1.0317,-3.8702,2.3817,-1.0763,0,0,0
0.0334,0.1506,1.0168,-2.7481,2.5038,-1.2061,0,0,0
0.0322,0.1555,0.9963,-1.9389,2.0687,-0.9847,0,0,0
0.0288,0.1577,0.9963,-2.3893,0.855,-1.4504,0,0,0
0.0237,0.1499,0.9944,-2.1298,-0.313,-1.8855,0,0,0
0.0308,0.1543,1.0061,-1.4427,-0.9237,-1.9008,0,0,0
0.0281,0.1528,1.0046,-1.8779,-0.9084,-2.1527,0,0,0
0.0215,0.1521,1.0085,-3.9313,-0.3664,-2.3893,0,0,0
0.0288,0.1436,1.0183,-4.9542,0.3969,-2.5878,0,0,0
0.0278,0.1399,1.0137,-5.0458,0.7786,-2.1069,0,0,0
0.0195,0.1357,1.0032,-5.1527,0.8779,-2.0611,0,0,0
0.0171,0.1265,1.0049,-4.9389,-0.2366,-1.4504,0,0,0
0.0134,0.1262,1.0063,-4.3588,-1.5267,-0.4198,0,0,0
0.0137,0.1306,1.0171,-2.9237,-2.8931,0.0382,0,0,0
0.0188,0.1414,1.0271,-2.4351,-3.2977,0.1298,0,0,0
0.0249,0.1423,1.0486,-2.229,-2.7099,0.0611,0,0,0
0.0269,0.145,1.0408,-3.0076,-1.145,-0.1985,0,0,0
0.0273,0.1414,1.0264,-3.3511,-0.0229,-0.1908,0,0,0
0.0239,0.1531,1.0308,-3.5038,0.7786,-0.687,0,0,0
0.0256,0.156,1.0349,-4.9008,0.6565,-0.9924,0,0,0
0.0283,0.157,1.0447,-4.6336,0.7405,-1.6336,0,0,0
0.0313,0.1514,1.0356,-3.8168,1.0229,-2.2672,0,0,0
0.0286,0.1482,1.0264,-2.3893,0.2824,-2.9847,0,0,0
0.0205,0.1418,1.0225,-1.8092,-0.8397,-3.9237,0,0,0
0.0051,0.1377,1.0212,-1.7023,-1.3282,-3.5038,0,0,0
0.0071,0.1277,1.0166,-2.6336,-0.916,-2.9237,0,0,0
0.0085,0.1179,1.0093,-4.5649,-0.458,-1.0763,0,0,0
0.0059,0.1287,1.0044,-6.3969,-0.1527,0.4351,0,0,0
0.0059,0.1392,0.9983,-7.8092,0.0076,1.4427,0,0,0
0.0107,0.1445,1.001,-8.7099,-0.9389,1.6031,0,0,0
0.0088,0.1416,1.0129,-7.7023,-2.3359,0.8397,0,0,0
0.0073,0.146,1.0107,-5.687,-3.4122,-0.1298,0,0,0
0.0159,0.146,1.0095,-3.4198,-4.0076,-0.5496,0,0,0
0.0181,0.1489,0.9929,-2.4504,-5.2061,-0.5954,0,0,0
0.0217,0.1526,0.9995,-1.5649,-5.8015,-1.2137,0,0,0
0.0208,0.1506,1.0188,-1.8473,-6.3206,-1.6489,0,0,0
0.0266,0.1521,1.0364,-1.9618,-5.6947,-2.3282,0,0,0
0.0256,0.1477,1.0237,-2.8473,-4.5573,-2.5649,0,0,0
0.0239,0.1384,1.0195,-4.374,-3.4351,-2.4046,0,0,0
0.022,0.1379,1.0164,-5.6031,-2.9313,-2.2137,0,0,0
0.0254,0.1272,1.0151,-5.2061,-3.5649,-2.084,0,0,0
0.021,0.1333,1.0217,-5.0153,-3.9542,-1.2977,0,0,0
0.0288,0.1345,1.04,-3.2595,-4.8779,-0.6183,0,0,0
0.0337,0.1448,1.0417,-1.9847,-5.1527,-0.7252,0,0,0
0.0405,0.1528,1.0447,-1.5725,-4.5573,-1.4275,0,0,0
0.0544,0.1553,1.0576,-2.2824,-3.1374,-2.8321,0,0,0
0.0474,0.1638,1.0759,-2.4656,-0.3588,-4.3282,0,0,0
0.0415,0.147,1.0571,-2.0458,2.4656,-5.4275,0,0,0
0.0505,0.1379,1.0381,-2.1985,3.9313,-5.6641,0,0,0
0.0383,0.1416,1.0186,-2.4885,4.3969,-5.5267,0,0,0
0.0356,0.1375,1.0061,-3.0458,3.313,-5.2824,0,0,0
0.033,0.1309,1.0027,-3.1985,1.8473,-5.2748,0,0,0
0.0259,0.127,1.0037,-3.2137,0.9237,-5.0763,0,0,0
0.0251,0.1223,1.0032,-2.8397,-0.8473,-4.5115,0,0,0
0.0261,0.1218,1.0054,-2.7252,-1.9466,-3.374,0,0,0
0.0234,0.1306,1.0132,-2.6565,-2.7557,-2.4275,0,0,0
0.0283,0.1333,1.0232,-3.1145,-2.4885,-2.4122,0,0,0
0.0278,0.1396,1.0251,-3.313,-1.7557,-2.7252,0,0,0
0.0342,0.1304,1.0168,-3.5038,-0.5038,-3.1985,0,0,0
0.0308,0.1226,1.0088,-3.2748,-1.0076,-3.7557,0,0,0
0.0281,0.1184,1.012,-3.6641,-1.771,-4.3511,0,0,0
0.0249,0.1079,1.001,-4.3511,-2.9847,-4.0458,0,0,0
0.021,0.1047,1.0139,-4.771,-3.3206,-2.9237,0,0,0
0.0212,0.1008,1.0244,-5.084,-3.5038,-1.1298,0,0,0
0.0195,0.1052,1.0376,-4.687,-2.5344,0.9389,0,0,0
0.0281,0.116,1.0291,-3.1374,-1.8397,1.3817,0,0,0
0.0332,0.127,1.0305,-2.0992,-1.3817,1.8702,0,0,0
0.0391,0.1328,1.0237,-1.2366,-1.8779,1.1527,0,0,0
0.0386,0.1348,1.02,-0.2977,-2.374,0.5115,0,0,0
0.0408,0.1282,1.0251,-0.1679,-2.5725,-0.1069,0,0,0
0.0437,0.125,1.0161,0.1069,-3.1832,-0.1527,0,0,0
0.0464,0.1243,1.0146,-1.1908,-3.6031,0.1527,0,0,0
0.0415,0.1316,1.0195,-2.9008,-3.3053,0.7481,0,0,0
0.0391,0.137,1.0417,-4.2443,-2.0763,0.6641,0,0,0
0.0496,0.1387,1.0435,-4.8015,-0.5725,0.5496,0,0,0
0.0457,0.1375,1.0396,-4.3206,0.687,0.4351,0,0,0
0.0442,0.1399,1.0295,-2.9237,0.7634,-0.855,0,0,0
0.0393,0.1375,1.0376,-2.0382,0.5115,-2.0534,0,0,0
0.0386,0.1323,1.0308,-1.4809,0.0992,-3.2672,0,0,0
0.0386,0.1248,1.032,-0.9618,-0.4198,-3.2519,0,0,0
0.0308,0.113,1.0293,-0.7786,-0.4733,-3.145,0,0,0
0.0313,0.1106,1.0271,-1.7099,0.0763,-2.5954,0,0,0
0.02,0.1077,1.0317,-3.0,0.4427,-1.3053,0,0,0
0.0244,0.1099,1.0242,-3.8931,0.9542,0.1756,0,0,0
0.0227,0.115,1.0249,-5.1527,0.7939,1.0763,0,0,0
0.0232,0.1182,1.0354,-4.3206,1.1603,1.6718,0,0,0
0.0286,0.1294,1.043,-3.5191,1.0305,1.5878,0,0,0
0.0298,0.1272,1.033,-1.9771,1.2672,1.3511,0,0,0
0.0281,0.1323,1.0181,-0.6336,0.8397,0.0992,0,0,0
0.0356,0.1304,1.0051,-1.0992,0.374,0.1908,0,0,0
0.0327,0.1245,1.0049,-1.6183,-0.4275,0.6794,0,0,0
0.0286,0.1287,1.0151,-2.0763,-1.3053,0.9237,0,0,0
0.0293,0.1335,1.0374,-1.9924,-0.9771,1.0229,0,0,0
0.0344,0.1345,1.0559,-2.0611,0.2366,0.6641,0,0,0
0.0349,0.1321,1.0464,-1.4962,2.4046,0.0763,0,0,0
0.043,0.1313,1.0193,-1.2061,4.2519,-0.2061,0,0,0
0.0334,0.1277,0.9912,-2.0763,3.9924,-0.0916,0,0,0
0.0381,0.1274,0.9763,-3.1679,2.4122,0.2061,0,0,0
0.0234,0.1292,0.9763,-3.6412,-0.0153,-0.0229,0,0,0
0.0261,0.1272,0.991,-3.0153,-2.5649,-0.145,0,0,0
0.0225,0.1274,1.0315,-0.9924,-4.3282,-0.229,0,0,0
0.0332,0.1321,1.0288,-0.1985,-4.2595,0.0611,0,0,0
0.04,0.1316,1.0388,-0.5725,-2.2519,0.084,0,0,0
0.0332,0.1365,1.0359,-1.313,-0.3282,0.5115,0,0,0
0.0388,0.1377,1.0186,-2.5725,1.1221,0.2214,0,0,0
0.0359,0.1353,1.0066,-4.1832,0.626,-0.1603,0,0,0
0.0308,0.136,1.011,-4.5267,-0.4504,-0.8702,0,0,0
0.0303,0.134,1.0286,-3.8244,-1.6947,-1.1985,0,0,0
0.0356,0.1382,1.0474,-3.687,-0.9847,-1.771,0,0,0
0.0356,0.1345,1.0457,-3.8168,-0.0153,-2.5725,0,0,0
0.0344,0.1235,1.03,-3.9771,1.6336,-2.8321,0,0,0
0.0212,0.1143,1.0234,-3.4046,1.8779,-2.2137,0,0,0
0.0208,0.1099,1.0151,-3.2519,1.229,-1.0076,0,0,0
0.0244,0.1106,1.0024,-2.5573,-0.4275,-0.0153,0,0,0
0.0217,0.1206,1.0117,-2.6183,-1.8168,0.1679,0,0,0
0.0256,0.1274,1.0281,-2.7252,-2.5267,0.1603,0,0,0
0.0264,0.1316,1.0381,-1.9542,-2.3511,-0.2595,0,0,0
0.0325,0.1316,1.0356,-1.4809,-0.916,-1.1527,0,0,0
0.0376,0.1287,1.0354,-1.3511,-0.0229,-1.6947,0,0,0
0.0388,0.1262,1.0244,-0.8321,0.4122,-1.7634,0,0,0
0.0303,0.1223,1.0156,-0.5344,0.0992,-2.5038,0,0,0
0.0276,0.1177,1.0037,0.1603,-1.0153,-2.5038,0,0,0
0.0298,0.1179,1.0044,0.3969,-2.3588,-1.8092,0,0,0
0.0383,0.1274,1.0183,-0.2748,-3.313,-1.5878,0,0,0
0.0391,0.137,1.0259,-0.5115,-2.9771,-1.9237,0,0,0
0.0403,0.1301,1.0366,-1.6565,-1.6641,-2.4046,0,0,0
0.0381,0.1243,1.0356,-1.229,-0.8244,-2.8092,0,0,0
0.0388,0.1221,1.0415,-1.0,0.2214,-3.2901,0,0,0
0.0283,0.1199,1.0305,-1.0687,0.4733,-2.9466,0,0,0
0.0378,0.1245,1.0259,-0.7252,0.9389,-3.1908,0,0,0
0.0354,0.125,1.0295,-0.626,1.1527,-3.1069,0,0,0
0.032,0.1235,1.0168,-0.7099,1.0687,-3.4809,0,0,0
0.0271,0.1226,1.0132,-0.9466,0.1832,-3.3282,0,0,0
0.0205,0.1223,1.0366,-3.0992,-0.855,-2.6412,0,0,0
0.0376,0.1243,1.0293,0.5191,-1.8931,-1.6794,0,0,0
0.031,0.1355,1.0542,-0.7099,-0.1908,-1.916,0,0,0
0.0459,0.1545,1.0498,-2.9847,2.1908,-2.8244,0,0,0
0.0493,0.1467,1.0178,-8.9542,5.9618,-5.2901,0,0,0
0.071,0.1145,1.0452,-5.9847,6.9618,-6.7939,0,0,0
0.021,0.1243,1.0139,-4.1985,9.1679,-6.313,0,0,0
0.0061,0.1208,0.9934,-7.2901,8.0153,-4.2366,0,0,0
0.0195,0.1138,0.988,-10.3282,6.9924,-1.6794,0,0,0
0.0137,0.1028,1.0005,-12.7099,5.687,0.0076,0,0,0
0.0076,0.1089,1.0146,-11.2366,5.0305,-0.4427,0,0,0
0.0059,0.1167,1.0076,-9.5344,4.7786,-1.5725,0,0,0
0.0085,0.1064,1.01,-7.0687,2.7939,-2.3435,0,0,0
0.0093,0.0947,1.0029,-5.1221,0.4275,-1.4198,0,0,0
0.0061,0.1033,1.011,-3.6412,-1.6489,-0.8855,0,0,0
0.0012,0.1116,1.0178,-4.2901,-2.855,-0.4046,0,0,0
-0.0005,0.1055,1.0396,-4.6641,-3.2214,0.0763,0,0,0
0.0161,0.0876,1.041,-4.7023,-1.5496,1.4427,0,0,0
0.0259,0.0894,1.0405,-3.771,0.7023,2.0916,0,0,0
0.0291,0.1074,1.0591,-2.4122,2.7786,2.2748,0,0,0
0.0205,0.1245,1.0366,-3.4275,5.4427,0.2061,0,0,0
0.0222,0.1218,1.0315,-3.771,4.6565,-0.5954,0,0,0
0.0134,0.1226,1.0247,-2.9695,3.8473,-1.4275,0,0,0
0.0083,0.1187,1.0168,-0.4809,1.7634,-1.626,0,0,0
0.0125,0.1152,1.0098,0.4733,-0.3664,-1.8473,0,0,0
0.0151,0.1223,1.0195,0.5649,-1.0458,-2.0611,0,0,0
0.0227,0.1177,1.0408,-0.4656,-0.3359,-2.2748,0,0,0
0.0225,0.1206,1.0432,-2.0,1.8244,-1.8855,0,0,0
0.0237,0.1133,1.0354,-3.374,4.7176,-1.7557,0,0,0
0.0215,0.1045,1.0305,-5.3511,6.1527,-1.0382,0,0,0
0.019,0.1155,1.0408,-5.0458,8.2443,-0.8855,0,0,0
0.0042,0.1187,1.0281,-5.2061,8.6718,-1.7099,0,0,0
0.0049,0.116,1.0029,-4.0458,5.4885,-1.2061,0,0,0
0.019,0.1182,1.0164,-3.0992,4.0382,-3.626,0,0,0
0.0059,0.1313,1.0266,-1.6031,4.855,-4.8015,0,0,0
-0.0173,0.1318,1.0046,-4.3206,5.8626,-6.1603,0,0,0
-0.0085,0.0852,1.0137,-5.2519,5.458,-3.7099,0,0,0
0.0193,0.0837,1.0303,-8.2137,5.6336,-0.0076,0,0,0
0.0281,0.1221,1.0681,-9.5115,8.084,0.8092,0,0,0
-0.0076,0.1821,1.1558,-9.8855,14.2366,-1.8244,0,0,0
-0.0178,0.0654,1.0525,-15.0611,22.5573,-7.9924,0,0,0
0.0049,0.1558,1.0317,-15.2672,19.916,-8.6947,0,0,0
-0.0063,0.0881,1.0322,-14.0382,19.855,-9.1374,0,0,0
-0.009,0.0479,1.0383,-13.7405,22.229,-5.0,0,0,0
-0.0469,0.0664,1.0334,-10.2061,21.8779,-1.8855,0,0,0
-0.0317,0.0647,1.0288,-5.8015,20.6031,0.0916,0,0,0
-0.0332,0.0847,1.0359,-3.0458,19.1221,1.3969,0,0,0
-0.0286,0.1045,1.0696,-1.7863,26.2137,-0.2977,0,0,0
-0.0835,0.0576,1.0581,0.0992,30.7328,-0.5649,0,0,0
-0.0806,0.0796,0.9221,-0.1145,25.0305,-1.3053,0,0,0
-0.0784,0.075,0.9382,0.9771,15.9313,-0.5954,0,0,0
-0.053,0.0825,0.9976,-4.0611,13.5344,1.2061,0,0,0
-0.0618,0.0911,1.0081,-6.8168,12.8931,2.145,0,0,0
-0.0491,0.1191,1.0193,-8.916,12.3511,0.9847,0,0,0
-0.042,0.1143,1.0312,-10.1145,12.9466,-0.2214,0,0,0
-0.0454,0.1272,1.0466,-9.3817,15.2137,-1.3893,0,0,0
-0.0586,0.1145,1.0181,-11.8702,16.5114,-4.6794,0,0,0
-0.0632,0.0918,1.02,-7.8321,14.6794,-6.1298,0,0,0
-0.0796,0.071,1.0117,-6.145,10.1527,-6.4122,0,0,0
-0.0798,0.0566,1.0269,-1.4351,8.5878,-5.3511,0,0,0
-0.0427,0.1079,0.9878,7.9618,11.6489,-1.5191,0,0,0
-0.0515,0.075,1.0295,-9.7481,12.2214,-0.8397,0,0,0
-0.082,0.1038,1.054,-14.9389,13.8321,-1.9542,0,0,0
-0.0935,0.0637,1.0178,-15.2061,13.4198,-2.2901,0,0,0
-0.0999,0.0569,1.0276,-13.1374,12.4427,-2.1603,0,0,0
-0.1013,0.0513,1.0161,-7.9237,9.9389,-0.2748,0,0,0
-0.1038,0.0505,1.0164,-5.4351,8.458,1.5878,0,0,0
-0.0857,0.064,1.0146,-4.0763,5.0992,2.1069,0,0,0
-0.104,0.0559,0.97,19.229,6.2748,5.6412,0,0,0
-0.0806,0.075,1.0276,-1.4198,2.687,1.3282,0,0,0
-0.0869,0.1108,1.0454,-0.8473,5.2824,-2.7481,0,0,0
-0.0947,0.1035,0.998,-3.687,7.3435,-5.4046,0,0,0
-0.0979,0.0859,0.9727,-4.1145,4.9847,-5.229,0,0,0
-0.1028,0.0757,1.0,-4.9924,3.7252,-3.5038,0,0,0
-0.0938,0.071,1.0181,-3.2137,3.5038,-2.542,0,0,0
-0.0881,0.0994,1.0186,-3.4122,4.6412,-3.1527,0,0,0
-0.0894,0.1045,1.0183,-5.5267,6.3817,-5.2672,0,0,0
-0.0959,0.0938,0.9954,-7.1527,7.5344,-6.6718,0,0,0
-0.1052,0.051,0.9856,-7.1145,6.0687,-6.0534,0,0,0
-0.1091,0.0408,0.9941,-4.2443,2.229,-3.9237,0,0,0
-0.114,0.0491,1.009,-2.5191,1.1527,-2.8397,0,0,0
-0.1177,0.0681,1.0366,-0.2519,-0.2901,-2.8702,0,0,0
