ax,ay,az,gx,gy,gz,left_click,right_click
0.1145,0.2759,0.9736,-2.6183,1.084,-1.229,0,0,0
0.1167,0.2678,0.9707,-2.3053,0.2061,-1.2977,0,0,0
0.1177,0.2698,0.9644,-1.5878,-0.7557,-0.3053,0,0,0
0.1133,0.2715,0.9531,-1.0305,-2.4046,-0.1527,0,0,0
0.1172,0.2805,0.9788,-0.1527,-2.6336,-0.0763,0,0,0
0.126,0.2866,0.9802,-0.5344,-1.8092,0.0458,0,0,0
0.1196,0.2837,0.9819,-0.3359,-1.3359,-0.1145,0,0,0
0.123,0.2947,0.991,-0.4504,-1.2214,-0.5496,0,0,0
0.1177,0.2979,0.9854,-0.9237,-0.0916,-0.9389,0,0,0
0.1138,0.292,0.9929,-1.7786,0.1069,-1.4962,0,0,0
0.1123,0.2874,0.9749,-2.7176,-1.0382,-1.3359,0,0,0
0.1147,0.2813,0.9812,-2.8244,-1.6489,-0.7023,0,0,0
0.1211,0.2813,0.9893,-2.6489,-1.5878,-0.626,0,0,0
0.1265,0.2876,0.9978,-1.458,-0.8931,-0.1908,0,0,0
0.1279,0.2852,0.9998,-0.6336,0.3511,-0.9466,0,0,0
0.1211,0.2866,0.9895,-0.5496,0.9695,-1.0076,0,0,0
0.115,0.2935,0.9824,-1.4885,0.7863,-0.9542,0,0,0
0.1125,0.2771,0.9722,-1.5573,-0.7099,-0.687,0,0,0
0.1143,0.2869,0.9761,-0.5115,-1.8702,-0.7786,0,0,0
0.1216,0.2937,0.9851,-0.1679,-1.7176,-1.1221,0,0,0
0.1223,0.2756,0.9854,0.3664,-1.6412,-0.4809,0,0,0
0.1309,0.2864,0.9917,0.6641,-1.0,-0.0458,0,0,0
0.1284,0.2896,0.9805,-1.0916,-0.4656,-0.3817,0,0,0
0.1228,0.283,0.9854,-1.2061,-0.5649,-0.2366,0,0,0
0.1116,0.2803,0.9893,-0.9466,-1.4198,0.3206,0,0,0
0.1155,0.283,0.9756,-0.6183,-2.0916,0.8779,0,0,0
0.1189,0.2896,0.9863,-0.1832,-3.1145,1.4733,0,0,0
0.1128,0.2893,0.988,0.542,-4.3588,1.916,0,0,0
0.1118,0.2979,0.9888,0.6031,-5.6412,1.7939,0,0,0
0.1143,0.2976,0.9797,-0.3053,-6.7481,2.0916,0,0,0
0.1187,0.2981,0.9912,-1.0763,-9.0916,2.9618,0,0,0
0.1243,0.2932,0.9871,-2.3664,-9.8092,3.4809,0,0,0
0.1206,0.283,0.9832,-2.855,-11.3359,4.9695,0,0,0
0.1265,0.2817,0.9854,-3.145,-12.2901,5.7099,0,0,0
0.125,0.2864,0.9773,-1.3588,-13.6031,6.9771,0,0,0
0.1934,0.3145,1.0071,-0.4275,-8.2748,3.2748,0,0,0
0.1892,0.3335,1.0464,1.4504,-2.2214,0.3359,0,0,0
0.1628,0.3286,1.0588,6.5267,4.6412,-8.1908,0,0,0
0.1504,0.3835,1.0552,11.3511,10.145,-17.5878,0,0,0
0.1494,0.4163,1.0491,13.8779,13.5038,-29.7099,0,0,0
0.1292,0.3992,1.0583,15.313,15.8397,-38.2519,0,0,0
0.1602,0.3613,1.0449,16.7939,18.9008,-45.3053,0,0,0
0.1401,0.3357,0.968,18.9695,21.6718,-52.1145,0,0,0
0.1177,0.2825,1.0071,26.3435,23.5573,-56.2519,0,0,0
0.1069,0.3589,0.9766,33.2595,22.8626,-61.5496,0,0,0
0.0874,0.3474,0.929,36.4198,25.3435,-66.6031,0,0,0
0.0798,0.3582,0.9407,38.3053,24.1756,-72.6336,0,0,0
0.0342,0.3496,0.9346,40.6336,20.542,-77.2061,0,0,0
0.1045,0.4009,0.9355,41.2214,19.1908,-79.0305,0,0,0
0.0044,0.4065,0.9614,41.8244,13.4656,-76.0916,0,0,0
0.0063,0.4153,0.9287,35.687,8.6183,-70.8168,0,0,0
0.0605,0.3928,0.9246,23.4122,6.7099,-63.4198,0,0,0
-0.0039,0.3982,0.9189,15.5267,0.4656,-52.3359,0,0,0
0.0217,0.3274,0.9207,12.0992,-3.5649,-47.7863,0,0,0
0.0049,0.3687,0.9153,12.9466,-7.2137,-46.6641,0,0,0
0.0767,0.4307,0.9739,15.4809,-6.0076,-50.4962,0,0,0
0.074,0.4736,0.9854,17.0382,-1.145,-58.8092,0,0,0
0.0227,0.4976,0.9868,19.3969,-1.542,-67.687,0,0,0
0.0469,0.4658,0.9934,19.3664,-3.9771,-71.8168,0,0,0
0.0481,0.4155,0.998,11.0229,3.1679,-68.7863,0,0,0
0.0725,0.3706,0.9707,-0.5038,13.9695,-57.626,0,0,0
0.0413,0.2783,0.949,-7.7252,18.916,-43.4656,0,0,0
0.0623,0.2283,0.9534,-8.855,21.1069,-32.2061,0,0,0
-0.0056,0.2766,0.916,-8.6641,22.6794,-24.9695,0,0,0
0.0605,0.2983,0.9172,-8.4733,24.2901,-19.8321,0,0,0
0.0068,0.2952,0.9534,-9.2595,24.9389,-13.8779,0,0,0
0.0181,0.3303,0.968,-10.916,29.0916,-6.2901,0,0,0
-0.042,0.3093,0.9336,-13.2214,31.2061,5.2443,0,0,0
-0.1025,0.3484,0.8828,-18.0229,26.8092,15.5191,0,0,0
-0.0068,0.3286,0.9097,-15.7099,23.1298,17.4198,0,0,0
-0.0498,0.332,0.9075,-13.0,18.5114,15.8397,0,0,0
-0.0376,0.3303,0.9519,-11.2824,16.8931,15.7023,0,0,0
-0.0481,0.3374,0.9695,-11.2748,16.4885,18.9695,0,0,0
0.0188,0.3564,1.0229,-9.9542,19.6641,21.7557,0,0,0
-0.0291,0.3699,1.0032,-9.5725,26.2977,23.1069,0,0,0
-0.0444,0.3665,0.9893,-10.687,30.5878,22.5038,0,0,0
-0.0876,0.3369,0.9509,-12.9237,27.9313,23.4122,0,0,0
-0.1143,0.3521,0.906,-18.916,25.1756,26.6183,0,0,0
-0.0886,0.3396,0.8945,-24.313,17.4427,32.374,0,0,0
-0.0542,0.3071,0.9133,-27.5114,13.9618,37.458,0,0,0
-0.0364,0.2976,0.9802,-30.4504,13.8397,43.6947,0,0,0
0.0762,0.3311,1.031,-30.7557,26.9237,45.7634,0,0,0
-0.1074,0.3362,0.9705,-27.4809,24.4809,45.8168,0,0,0
-0.0313,0.3689,0.9834,-27.458,30.1221,43.2977,0,0,0
-0.0613,0.322,1.0527,-30.2443,33.916,43.1679,0,0,0
0.0276,0.3452,1.0933,-38.4046,48.4733,52.4046,0,0,0
-0.0149,0.2983,1.0464,-46.8931,59.8855,63.6412,0,0,0
-0.0352,0.2859,1.0,-52.8855,66.3053,71.1679,0,0,0
-0.1262,0.2598,0.9321,-51.6641,66.8092,71.2519,0,0,0
-0.1306,0.2827,0.9209,-42.626,55.6107,62.8244,0,0,0
-0.1926,0.2996,0.8928,-27.084,45.2748,48.7939,0,0,0
-0.2083,0.3337,0.9062,-14.5496,34.9084,37.687,0,0,0
-0.137,0.3457,0.9768,-8.6947,29.9084,33.7786,0,0,0
0.0605,0.3574,1.1482,-12.0687,41.0916,37.4733,0,0,0
-0.0198,0.3164,1.1016,-16.7481,61.1985,41.9695,0,0,0
-0.1948,0.3291,1.0002,-20.0153,67.4886,40.771,0,0,0
-0.2668,0.3408,0.8923,-24.5267,62.3969,35.9008,0,0,0
-0.1711,0.3989,0.8608,-30.3053,46.626,28.6489,0,0,0
-0.2759,0.3074,0.8242,-28.7328,35.8321,19.8321,0,0,0
-0.2627,0.2764,0.8628,-19.0458,19.2748,15.8015,0,0,0
-0.1841,0.2742,0.915,-9.4962,10.4351,13.8779,0,0,0
-0.1594,0.2781,0.9424,-2.5725,9.313,13.7328,0,0,0
-0.1738,0.2986,0.9556,-3.0305,9.313,14.7939,0,0,0
-0.1919,0.3042,0.9631,-7.9313,8.5954,18.6031,0,0,0
-0.1982,0.3066,0.9475,-12.5802,6.1679,20.5496,0,0,0
-0.1946,0.3076,0.9487,-13.3359,3.542,18.9924,0,0,0
-0.1912,0.3037,0.926,-11.3053,-0.6794,15.4198,0,0,0
-0.1946,0.3079,0.9304,-8.3893,-5.8473,10.5496,0,0,0
-0.168,0.3003,0.925,-7.1298,-8.8702,7.5878,0,0,0
-0.1748,0.2986,0.9502,-7.458,-10.5267,6.1527,0,0,0
-0.1863,0.2998,0.938,-6.3893,-13.6107,5.0,0,0,0
-0.1787,0.2844,0.95,-6.3893,-16.4427,5.0,0,0,0
-0.1489,0.2781,0.9661,-6.8092,-17.4809,5.6107,0,0,0
-0.1328,0.2764,0.9805,-7.1374,-15.5267,5.6336,0,0,0
-0.1255,0.2617,0.9939,-7.2061,-13.084,7.229,0,0,0
-0.1306,0.2715,0.9895,-7.7863,-9.5649,9.5573,0,0,0
-0.1431,0.2791,0.9785,-10.5954,-8.8779,11.4427,0,0,0
-0.1511,0.2937,0.9702,-13.0229,-9.9313,11.9389,0,0,0
-0.1614,0.3027,0.9597,-16.1603,-12.9542,11.0534,0,0,0
-0.1526,0.2878,0.949,-19.4122,-16.8244,11.542,0,0,0
-0.1443,0.2561,0.9431,-23.3435,-19.2977,14.8855,0,0,0
-0.136,0.2356,0.9463,-25.7939,-21.3435,20.8397,0,0,0
-0.1184,0.2273,0.9663,-26.7176,-22.771,24.4275,0,0,0
-0.1243,0.2246,0.9844,-29.6107,-24.1756,27.2901,0,0,0
-0.1035,0.2021,0.9946,-29.5649,-25.0687,31.0229,0,0,0
-0.0837,0.2175,1.0217,-27.7557,-23.0458,31.1832,0,0,0
-0.0833,0.2344,1.0271,-26.4198,-19.9924,30.5191,0,0,0
-0.073,0.2512,1.0032,-27.5802,-16.7863,29.1374,0,0,0
-0.0706,0.1934,1.0291,-22.6489,-14.0076,29.313,0,0,0
-0.0627,0.1887,1.0364,-17.3588,-9.9695,30.4351,0,0,0
-0.0647,0.2087,1.0767,-16.7786,-5.5878,31.3511,0,0,0
-0.0742,0.2493,1.043,-19.4885,-2.7939,29.7023,0,0,0
-0.0762,0.2322,1.0359,-20.0229,-1.6336,27.6947,0,0,0
-0.0913,0.2014,1.0186,-18.3664,-1.5802,27.7176,0,0,0
-0.0994,0.22,0.9971,-18.8855,-3.7939,26.4885,0,0,0
-0.0891,0.1799,1.0037,-17.1679,-4.7939,25.7023,0,0,0
-0.083,0.1575,1.0093,-8.5191,-3.7939,26.229,0,0,0
-0.0652,0.1677,1.0361,-2.5802,-1.7405,28.1069,0,0,0
-0.0676,0.2122,1.04,1.4733,1.2748,26.2366,0,0,0
-0.073,0.2502,1.0405,1.8473,3.2748,21.9008,0,0,0
-0.071,0.2651,1.043,-0.1374,6.2977,19.5725,0,0,0
-0.0752,0.2422,1.032,-1.1832,9.1221,16.9618,0,0,0
-0.083,0.2468,1.0366,-1.0458,10.7176,15.3664,0,0,0
-0.0813,0.259,1.0132,-1.7176,11.3511,14.6489,0,0,0
-0.083,0.2544,1.0107,-3.2519,11.6947,14.0687,0,0,0
-0.094,0.2185,0.9873,-4.7328,10.5191,14.6947,0,0,0
-0.0991,0.2019,1.0,-2.8168,9.4427,15.4122,0,0,0
-0.0894,0.2275,0.9968,-0.9008,9.084,14.1756,0,0,0
-0.0974,0.2244,0.9827,1.5191,8.9237,10.5878,0,0,0
-0.103,0.2415,0.9883,1.5954,6.0153,9.1298,0,0,0
-0.0852,0.2378,0.9963,2.7481,6.6336,7.6794,0,0,0
-0.093,0.2056,0.9951,3.626,6.0687,7.8473,0,0,0
-0.0945,0.1763,0.9905,9.5878,6.1221,9.9695,0,0,0
-0.0869,0.2007,0.9822,14.2519,4.7252,11.9847,0,0,0
-0.0391,0.2737,0.9883,16.0458,8.5344,8.6565,0,0,0
-0.0618,0.2393,1.0144,15.4885,9.4122,6.6336,0,0,0
-0.1145,0.3115,0.9443,9.2672,7.7252,3.4427,1,0,0
-0.103,0.2556,0.9565,5.3206,6.9237,1.1908,1,0,0
-0.0837,0.25,0.9954,4.1145,5.5954,1.4962,1,0,0
-0.0813,0.23,0.9839,3.3817,3.9771,2.0763,1,0,0
-0.1052,0.2422,0.9695,3.0229,3.7481,1.2519,1,0,0
-0.0957,0.2473,0.978,2.5649,3.2366,1.4809,1,0,0
-0.0901,0.2549,0.9868,2.5038,3.3664,1.3588,1,0,0
-0.0928,0.2671,0.9746,1.9237,3.8626,1.1603,1,0,0
-0.0942,0.2878,0.9797,-0.3893,3.5802,-0.1908,1,0,0
-0.0916,0.2957,0.967,-4.8321,2.5496,-1.3435,1,0,0
-0.0933,0.2961,0.9661,-9.5878,2.0076,-2.3435,1,0,0
-0.0933,0.272,0.9553,-12.1298,0.3817,-3.3282,1,0,0
-0.1016,0.2683,0.9653,-11.9008,-0.1527,-4.8702,1,0,0
-0.0991,0.2632,0.9692,-11.5038,0.0611,-6.916,1,0,0
-0.0977,0.2944,0.9402,-11.855,0.7557,-12.1985,1,0,0
-0.1191,0.2305,0.926,-11.1908,-3.4733,-12.9008,1,0,0
-0.1111,0.251,0.9619,-11.5954,-6.855,-12.855,1,0,0
-0.1018,0.2371,0.9604,-10.0076,-8.7557,-13.8015,1,0,0
-0.0901,0.2026,0.9731,-4.6641,-10.2748,-12.4122,1,0,0
-0.094,0.1917,0.9856,0.4427,-11.5344,-9.0,1,0,0
-0.0894,0.2195,0.9902,5.7405,-12.3206,-7.4046,1,0,0
-0.0784,0.2461,1.0056,10.9695,-11.7176,-8.4046,1,0,0
-0.0752,0.2834,0.9949,12.0611,-10.6565,-11.5496,0,0,0
-0.0784,0.269,0.9714,9.9008,-10.4046,-13.7786,0,0,0
-0.0852,0.283,0.9873,7.916,-10.8321,-15.6794,0,0,0
-0.082,0.2861,0.9807,6.9847,-12.313,-18.8931,0,0,0
-0.0798,0.2739,0.9775,9.6031,-12.9695,-22.7099,0,0,0
-0.0757,0.2617,0.9893,12.8626,-12.9084,-26.5038,0,0,0
-0.0327,0.2778,1.0237,16.3664,-20.916,-28.0534,0,0,0
-0.033,0.2114,1.0408,23.8092,-14.3206,-33.0458,0,0,0
-0.0134,0.2356,1.0623,32.8702,-5.6336,-35.0458,0,0,0
-0.0833,0.2524,1.0166,37.1756,-1.1832,-32.4046,0,0,0
-0.0557,0.3208,1.0308,34.687,2.313,-32.7786,0,0,0
-0.0593,0.3198,1.0496,30.1985,5.7939,-33.8244,0,0,0
-0.0676,0.3208,1.0486,26.8626,9.771,-34.0534,0,0,0
-0.0938,0.3274,1.0339,20.458,12.6107,-32.7023,0,0,0
-0.0938,0.311,1.0244,12.8244,14.5573,-32.2061,0,0,0
-0.1045,0.2734,0.9985,8.7634,15.4656,-29.9389,0,0,0
-0.1021,0.2461,1.019,6.8015,16.3893,-26.4962,0,0,0
-0.083,0.241,1.0466,4.855,20.6641,-21.8321,0,0,0
-0.1096,0.2397,1.0356,4.7481,23.2824,-18.3817,0,0,0
-0.1113,0.2466,1.0403,4.2519,25.0305,-15.0305,0,0,0
-0.1335,0.2664,1.0083,1.6336,26.1679,-13.7863,0,0,0
-0.1523,0.2664,0.9878,-1.1069,24.4046,-12.8168,0,0,0
-0.1514,0.2429,0.9902,-3.4427,21.5496,-10.0687,0,0,0
-0.1501,0.2366,0.9985,-4.458,19.771,-6.8931,0,0,0
-0.2976,0.156,1.021,-2.2519,35.7405,-9.7023,0,0,0
-0.2285,0.2605,0.9971,-1.0305,26.5267,-7.313,0,0,0
-0.2029,0.252,0.9849,-1.9084,25.7863,-6.4198,0,0,0
-0.2422,0.2444,0.9519,-2.5115,21.5344,-7.4504,0,0,0
-0.1841,0.2471,0.9849,-3.4809,20.4962,-5.1527,0,0,0
-0.1729,0.2383,0.9851,-4.8855,20.7099,-2.0382,0,0,0
-0.1609,0.2461,1.01,-5.6107,23.5191,0.4733,0,0,0
-0.1558,0.2515,1.0134,-3.5725,27.9695,-0.8931,0,0,0
-0.1472,0.248,1.0032,-0.5802,30.7863,-4.2519,0,0,0
-0.3916,0.1892,0.9351,2.2366,41.4351,-8.0153,0,0,0
-0.1575,0.2866,0.9763,-0.2595,35.7023,-5.9771,0,0,0
-0.2959,0.2637,0.9382,-0.9237,32.1603,-4.8015,0,0,0
-0.2441,0.2969,0.9368,0.2519,29.6489,-5.7481,0,0,0
-0.1958,0.2007,1.0574,3.0229,31.6336,-11.6794,0,0,0
0.1255,0.3606,1.0945,-1.3053,37.2061,-7.6336,0,0,0
-0.3428,0.2859,0.8889,-4.2748,32.1603,-7.5878,0,0,0
-0.3125,0.2078,0.8982,-2.4809,25.3206,-3.5878,0,0,0
-0.2271,0.2502,0.9409,0.2366,24.2748,-0.8931,0,0,0
-0.2502,0.2551,0.95,2.5344,24.6489,0.9771,0,0,0
-0.2556,0.2896,0.9382,2.4275,24.4351,1.0153,0,0,0
-0.2644,0.3083,0.9272,-0.0916,23.1908,-0.7786,0,0,0
-0.261,0.3113,0.9102,-3.3588,21.2748,-3.3817,0,0,0
-0.2581,0.2908,0.9263,-4.9237,20.6489,-4.771,0,0,0
-0.2639,0.27,0.9592,-5.5267,20.0229,-3.8168,0,0,0
-0.2588,0.26,1.0044,-3.9847,22.6794,-1.6489,0,0,0
-0.2161,0.2998,1.0083,-2.6183,27.3893,-0.8397,0,0,0
-0.4612,0.1992,0.9285,-1.6183,38.5954,-5.4122,0,0,0
-0.397,0.2322,0.8862,-0.229,31.542,-5.7252,0,0,0
-0.3496,0.2554,0.865,1.4656,17.9389,-3.0305,0,0,0
-0.3167,0.2219,0.8845,4.4733,15.6031,-2.7939,0,0,0
-0.3269,0.2302,0.8628,7.1145,9.5573,0.771,0,0,0
-0.302,0.249,0.8298,5.9542,5.5954,5.6718,0,0,0
-0.2712,0.2114,0.8311,10.4656,3.3282,3.0305,0,0,0
-0.3274,0.3196,0.9084,2.8702,4.4504,1.3664,0,0,0
-0.2976,0.2947,0.9043,2.9771,1.1985,1.4122,1,0,0
-0.3022,0.2849,0.9309,3.8244,0.0916,0.7481,1,0,0
-0.2981,0.3054,0.9297,3.8397,0.5115,0.687,1,0,0
-0.2866,0.3098,0.9248,2.7023,0.7176,0.1145,1,0,0
-0.2886,0.3223,0.9268,-1.6336,1.374,-0.0153,1,0,0
-0.3003,0.3171,0.9243,-6.0992,0.6336,-1.2137,1,0,0
-0.3088,0.3223,0.9368,-9.0305,0.9237,-2.7176,1,0,0
-0.3083,0.3147,0.9421,-11.1603,0.2443,-3.6183,1,0,0
-0.2925,0.2896,0.9436,-10.6641,0.3359,-3.9618,1,0,0
-0.2922,0.2991,0.9521,-10.3435,1.8244,-5.0763,1,0,0
-0.2935,0.2898,0.9387,-9.3893,3.9237,-7.916,1,0,0
-0.3022,0.2642,0.917,-6.4427,3.5878,-8.8702,1,0,0
-0.3081,0.2717,0.9292,-8.4733,1.5649,-5.8321,1,0,0
-0.303,0.272,0.9434,-10.3817,1.6947,-2.0687,1,0,0
-0.3152,0.2332,0.9348,-7.542,0.3511,0.7252,1,0,0
-0.3198,0.2432,0.9343,-2.7023,-0.9924,2.4809,1,0,0
-0.3198,0.2634,0.9329,1.2672,-2.3511,3.1603,1,0,0
-0.3171,0.2788,0.9392,2.9313,-3.1298,2.5725,1,0,0
-0.3042,0.2983,0.9509,2.771,-2.2443,1.9924,1,0,0
-0.3071,0.3096,0.9426,0.8702,-2.4656,1.7481,0,0,0
-0.3069,0.2981,0.9392,-1.9389,-2.6641,0.9924,0,0,0
-0.3083,0.2935,0.9395,-3.5344,-3.3664,0.6565,0,0,0
-0.3027,0.2751,0.9436,-3.3435,-3.5649,0.145,0,0,0
-0.3027,0.2734,0.9431,-1.6565,-3.2977,0.3435,0,0,0
-0.3093,0.2712,0.9502,0.4046,-2.8931,0.6107,0,0,0
-0.2971,0.2776,0.9387,1.4275,-2.8168,0.4198,0,0,0
-0.2893,0.2795,0.9365,1.6565,-1.7634,0.2214,0,0,0
-0.302,0.2881,0.948,0.9313,-1.0458,-0.626,0,0,0
-0.3025,0.2998,0.9382,-0.6489,-1.229,-1.2214,0,0,0
-0.3035,0.2976,0.9263,-3.4427,-1.8473,-1.6565,0,0,0
-0.2927,0.2749,0.9265,-5.0687,-2.458,-1.9389,0,0,0
-0.293,0.2605,0.9216,-6.3511,-2.5725,-0.3588,0,0,0
-0.2957,0.2595,0.9299,-6.2137,-2.626,1.7863,0,0,0
-0.2983,0.2632,0.9487,-5.9542,-2.7481,3.1145,0,0,0
-0.291,0.2654,0.9529,-5.1298,-2.2366,4.0763,0,0,0
-0.2834,0.262,0.9558,-4.626,-0.3664,5.1908,0,0,0
-0.2991,0.29,0.9375,-5.9466,-0.5191,4.9466,0,0,0
-0.2983,0.2964,0.9487,-9.3969,0.3282,4.1145,0,0,0
-0.3079,0.3149,0.9448,-14.2977,0.2595,2.9542,0,0,0
-0.3198,0.3074,0.9475,-18.8397,-0.7481,2.2672,0,0,0
-0.3296,0.2754,0.9304,-19.6565,-4.4504,1.8397,0,0,0
-0.3323,0.2622,0.9309,-21.0076,-8.5878,3.7176,0,0,0
-0.3203,0.2617,0.9226,-23.6031,-12.4198,5.6489,0,0,0
-0.3132,0.2217,0.8972,-25.8702,-15.2519,10.9618,0,0,0
-0.3013,0.1768,0.9021,-26.1069,-18.2672,17.8626,0,0,0
-0.219,0.2358,0.9556,-27.626,-18.145,21.9618,0,0,0
-0.3228,0.2305,0.9341,-29.9618,-19.8015,23.5954,0,0,0
-0.2605,0.2053,0.9548,-32.0,-23.1756,25.6947,0,0,0
-0.2739,0.2166,0.9517,-33.1527,-24.2443,26.4809,0,0,0
-0.2937,0.209,0.9541,-33.7176,-26.1374,26.687,0,0,0
-0.2742,0.1912,0.9412,-34.1069,-28.1221,27.3435,0,0,0
-0.2673,0.1843,0.8965,-36.0458,-32.3511,28.5649,0,0,0
-0.2554,0.1924,0.917,-36.6565,-37.8779,30.4427,0,0,0
-0.2273,0.1597,0.9062,-33.5802,-41.4427,32.4962,0,0,0
-0.2004,0.1538,0.9519,-25.7252,-38.1145,31.6947,0,0,0
-0.1877,0.197,0.9609,-18.8092,-36.5573,28.9237,0,0,0
-0.2278,0.2358,0.9346,-17.1069,-42.3435,26.7634,0,0,0
-0.137,0.25,0.988,-18.7939,-34.9542,23.0153,0,0,0
-0.1406,0.2532,1.0261,-15.9084,-31.3053,20.3282,0,0,0
-0.1868,0.23,0.9792,-14.2061,-32.3435,18.9389,0,0,0
-0.2092,0.2356,0.9963,-13.7939,-31.7863,17.9313,0,0,0
-0.157,0.2349,1.0046,-12.3817,-28.7939,15.5344,0,0,0
-0.1238,0.2566,0.9993,-13.0076,-24.1374,12.0763,0,0,0
-0.1208,0.2515,1.012,-13.2824,-18.6718,7.8855,0,0,0
-0.1245,0.2407,1.0215,-13.8779,-12.0992,4.3435,0,0,0
-0.1567,0.2195,1.0225,-13.9084,-9.0458,3.4198,0,0,0
-0.1619,0.2217,1.0173,-12.2672,-8.145,2.2443,0,0,0
-0.1541,0.2112,1.0173,-10.1832,-7.1679,-0.2214,0,0,0
-0.1599,0.1877,0.9934,-6.229,-6.8855,-2.1756,0,0,0
-0.1548,0.1741,0.9827,-1.7252,-7.855,-2.7939,0,0,0
-0.1526,0.1758,0.9766,2.0992,-8.8779,-3.855,0,0,0
-0.228,0.1628,0.9543,4.0,-13.7939,-3.5267,0,0,0
-0.135,0.2034,0.9993,2.2519,-11.7023,-3.9389,0,0,0
-0.1516,0.1865,1.0063,3.8779,-11.1985,-5.1832,0,0,0
-0.1292,0.2095,1.0347,4.2901,-10.7939,-7.4656,0,0,0
-0.134,0.2236,1.0447,2.0992,-7.1832,-9.855,0,0,0
-0.1475,0.2134,1.0469,1.8168,-5.9084,-9.5115,0,0,0
-0.155,0.21,1.0308,4.1374,-5.0153,-11.9695,0,0,0
-0.1665,0.2217,1.0046,7.3588,-8.0611,-13.9389,0,0,0
-0.1401,0.2173,1.0134,9.2214,-6.855,-16.9008,0,0,0
-0.1155,0.2212,1.0325,12.2672,-5.8168,-20.7405,0,0,0
-0.1077,0.217,1.0474,16.145,-0.1298,-25.145,0,0,0
-0.1365,0.1948,1.0388,19.145,2.4809,-26.313,0,0,0
-0.1519,0.1873,1.0298,21.3969,4.4656,-23.4962,0,0,0
-0.1667,0.1948,1.0225,20.5267,4.9389,-18.687,0,0,0
-0.1721,0.2231,0.989,18.2519,3.3359,-15.0916,0,0,0
-0.1589,0.2373,0.9829,14.8473,1.0458,-14.8397,0,0,0
-0.1746,0.261,0.9858,11.3053,-1.2443,-16.458,0,0,0
-0.1868,0.2844,0.9766,6.7863,-4.458,-18.6947,0,0,0
-0.208,0.2898,0.9404,1.5267,-17.4351,-18.8321,0,0,0
-0.1973,0.2314,0.9429,-0.4198,-18.2519,-20.8015,0,0,0
-0.1387,0.2234,0.9873,-0.2366,-20.5344,-20.8397,0,0,0
-0.1558,0.2173,0.9678,0.7786,-21.7634,-18.4656,0,0,0
-0.1384,0.1907,0.9849,2.6947,-22.8931,-14.6947,0,0,0
-0.1145,0.1814,0.998,5.0153,-22.9618,-10.9466,0,0,0
-0.0876,0.2029,1.0127,5.2366,-20.3969,-8.6031,0,0,0
-0.0977,0.198,1.0171,4.0763,-16.6183,-5.9313,0,0,0
-0.0845,0.2058,1.0312,2.8779,-11.8626,-3.9924,0,0,0
-0.0933,0.2209,1.0403,4.084,-6.6107,-5.0382,0,0,0
-0.1172,0.2305,1.0234,6.3206,-3.084,-6.9389,0,0,0
-0.1104,0.2378,1.0266,6.9618,-0.5725,-8.8473,0,0,0
-0.0972,0.2295,1.0413,8.5573,4.8168,-12.8244,0,0,0
-0.1096,0.2358,1.0471,10.0992,9.6107,-16.2366,0,0,0
-0.113,0.2283,1.0576,14.3206,14.2595,-19.1603,0,0,0
-0.1238,0.2615,1.0364,15.9389,18.4427,-22.3359,0,0,0
-0.1313,0.2573,1.0178,15.3435,21.6489,-24.7023,0,0,0
-0.1511,0.2605,1.0083,13.4275,23.855,-27.1527,0,0,0
-0.1685,0.2625,0.9985,10.7557,23.0076,-27.4275,0,0,0
-0.1646,0.2554,0.9897,8.2901,22.0305,-27.1985,0,0,0
-0.1609,0.2285,0.9971,9.2672,21.7328,-27.1908,0,0,0
-0.0874,0.2444,1.052,13.6947,24.3359,-28.7939,0,0,0
-0.3716,0.1409,0.9546,17.8702,36.0763,-26.1985,0,0,0
-0.2068,0.2239,0.9792,18.8244,27.0076,-18.3206,0,0,0
-0.2012,0.2681,0.9778,14.8015,26.4656,-13.8092,0,0,0
-0.2187,0.2732,0.9468,11.313,21.5802,-15.1069,0,0,0
-0.2493,0.2473,0.9148,9.0611,14.374,-12.4656,0,0,0
-0.2393,0.2222,0.9006,6.7863,6.1374,-8.5954,0,0,0
-0.2239,0.2339,0.9124,4.7023,0.2901,-5.5649,0,0,0
-0.2112,0.2576,0.9365,0.9695,-3.0687,-2.4275,0,0,0
-0.218,0.2681,0.9509,-1.7557,-5.542,-0.3359,0,0,0
-0.218,0.2708,0.9658,-3.8015,-7.5496,-0.313,0,0,0
-0.1985,0.2715,0.9653,-4.1756,-8.1603,-0.2748,0,0,0
-0.1831,0.2729,0.9712,-4.3511,-7.3053,-0.7939,0,0,0
-0.1855,0.2722,0.9822,-3.9084,-5.6183,-1.9847,0,0,0
-0.1826,0.2595,0.9817,-3.2366,-3.8168,-2.374,0,0,0
-0.1875,0.2456,0.9785,-2.8626,-2.4962,-1.8321,0,0,0
-0.1882,0.2585,0.9768,-2.9847,-2.0,-0.0687,0,0,0
-0.1873,0.2629,0.968,-3.8321,-1.4656,0.0534,0,0,0
-0.1943,0.2571,0.9773,-2.9237,-1.8779,-0.6412,0,0,0
-0.1953,0.259,0.9749,-2.5802,-1.7939,-0.8931,0,0,0
-0.2,0.2595,0.9719,-3.0076,-2.1221,-1.1069,0,0,0
-0.1943,0.252,0.9788,-2.8779,-2.855,-1.1145,0,0,0
-0.189,0.2424,0.9768,-1.8702,-1.9771,-0.5038,0,0,0
-0.1721,0.2363,0.9805,1.1374,-1.1069,1.0611,0,0,0
-0.1765,0.2532,0.9817,2.7939,2.1985,1.0534,0,0,0
-0.1887,0.2681,0.9746,2.5344,2.8015,0.5954,0,0,0
-0.1997,0.2661,0.9734,1.3969,1.7863,-0.4427,0,0,0
-0.1968,0.2654,0.9578,-0.8855,0.4962,-0.5038,0,0,0
-0.1892,0.2559,0.9573,-2.2061,-0.6031,-0.2595,0,0,0
-0.1946,0.2529,0.9597,-2.6641,-1.2443,-0.084,0,0,0
-0.1912,0.2473,0.9658,-1.8779,-2.3588,0.4275,0,0,0
-0.1782,0.2549,0.9944,-1.6336,-0.9618,0.2824,0,0,0
-0.1865,0.271,0.9856,-2.0229,0.8168,0.0382,0,0,0
-0.1904,0.2678,0.9827,-2.3511,0.916,-0.6336,0,0,0
-0.197,0.2493,0.9678,-1.3664,0.8855,-1.084,0,0,0
-0.2004,0.2556,0.9663,-0.7481,0.5038,-0.8092,0,0,0
-0.1968,0.26,0.9624,-0.3206,-0.2443,-0.9771,0,0,0
-0.1917,0.2673,0.959,-0.6412,-0.8779,-0.8702,0,0,0
-0.1953,0.2727,0.9626,-1.8244,-1.2443,-0.9618,0,0,0
-0.1809,0.262,0.9749,-1.916,-0.5344,-0.6947,0,0,0
-0.1821,0.2632,0.9829,-2.5649,1.0992,-0.5725,0,0,0
-0.1978,0.2561,0.97,-1.8626,0.9084,-0.6641,0,0,0
-0.2046,0.2561,0.9622,-1.2901,0.0687,-0.3435,0,0,0
-0.2085,0.2549,0.9536,-0.4198,-1.5191,0.3435,0,0,0
-0.1941,0.2615,0.9709,0.3359,-2.0458,0.6107,0,0,0
-0.1865,0.2646,0.9722,1.1985,-2.0458,0.6031,0,0,0
-0.179,0.2856,0.9856,0.7863,0.1985,-0.458,0,0,0
-0.197,0.3035,0.9675,-1.2977,1.6107,-2.0992,0,0,0
-0.2053,0.2878,0.96,-3.771,0.3588,-3.1832,0,0,0
-0.2056,0.2703,0.9604,-5.7099,-1.458,-3.5038,0,0,0
-0.1875,0.2417,0.9771,-5.9389,-1.9389,-2.1679,0,0,0
-0.1821,0.2373,0.9834,-4.9847,-0.4809,-1.5649,0,0,0
-0.188,0.2349,0.9695,-2.6947,0.1069,-0.7176,0,0,0
-0.2,0.2434,0.9617,-0.3893,-0.855,-0.313,0,0,0
-0.1995,0.2605,0.9507,0.1756,-2.4046,-0.3588,0,0,0
-0.1904,0.2654,0.96,-0.8931,-3.0229,-0.1527,0,0,0
-0.1914,0.2761,0.9761,-2.4198,-2.3206,-0.8473,0,0,0
-0.1914,0.2734,0.9746,-3.2748,-2.0229,-1.1908,0,0,0
-0.1875,0.2783,0.9673,-4.9466,-1.6336,-1.7634,0,0,0
-0.2009,0.2644,0.968,-6.2672,-1.458,-2.3435,0,0,0
-0.2021,0.2346,0.9646,-4.374,-2.8168,-1.7634,0,0,0
-0.1909,0.2297,0.9812,-1.6641,-2.1908,-0.7481,0,0,0
-0.1899,0.2546,0.9807,-0.0992,-1.2443,0.1374,0,0,0
-0.1956,0.262,0.9739,1.1145,-1.4275,-0.6412,0,0,0
-0.1931,0.2673,0.9753,0.9237,-0.9237,-1.3969,0,0,0
-0.1982,0.2695,0.9731,-0.1756,-0.8626,-1.3206,0,0,0
-0.2034,0.2783,0.9619,-1.8244,-1.7557,-1.2748,0,0,0
-0.2029,0.2793,0.9646,-3.9542,-3.5878,-2.0611,0,0,0
-0.1934,0.2688,0.9734,-5.4351,-4.3664,-1.8397,0,0,0
-0.1863,0.2595,0.9866,-5.8015,-3.687,-2.8626,0,0,0
-0.1833,0.2554,0.9905,-4.6031,-2.4885,-2.8855,0,0,0
-0.1855,0.2578,0.9939,-4.6107,0.0687,-3.2061,0,0,0
-0.2012,0.2344,0.9734,-2.3053,-0.5115,-2.3893,0,0,0
-0.2026,0.2476,0.9692,-0.4275,-1.6794,-1.5496,0,0,0
-0.1982,0.2595,0.9797,-0.8015,-3.1679,-1.4656,0,0,0
-0.188,0.2561,0.9856,-1.1298,-3.8702,-1.1145,0,0,0
-0.1904,0.2593,0.9885,-1.313,-3.7328,-1.5725,0,0,0
-0.1968,0.2708,0.9868,-1.9084,-3.4733,-1.8244,0,0,0
-0.1902,0.2651,0.9854,-3.8168,-3.771,-1.9237,0,0,0
-0.188,0.2573,0.9976,-4.6565,-3.1527,-1.5267,0,0,0
-0.1787,0.252,1.001,-4.5038,-2.4046,-2.0,0,0,0
-0.1868,0.2439,0.9902,-2.0763,-1.3053,-2.3053,0,0,0
-0.1931,0.248,0.9788,-0.0305,-1.3817,-2.3282,0,0,0
-0.198,0.2632,0.9817,0.374,-1.2137,-2.4351,0,0,0
-0.2,0.2773,0.9819,0.6641,-2.4504,-2.6947,0,0,0
-0.1995,0.2808,0.9756,-0.7099,-3.542,-3.5954,0,0,0
-0.2012,0.2866,0.9819,-2.7634,-4.7099,-4.2748,0,0,0
-0.2073,0.2878,0.9736,-5.4122,-6.2443,-5.0,0,0,0
-0.2053,0.2698,0.9724,-6.2061,-7.8321,-5.5725,0,0,0
-0.2114,0.2668,0.9753,-6.2137,-9.687,-6.1832,0,0,0
-0.2139,0.2712,0.9746,-5.4198,-12.8931,-7.2901,0,0,0
-0.1458,0.3389,0.9192,-5.0382,-31.7176,-6.7634,0,0,0
-0.2544,0.2517,0.9351,-6.458,-30.9008,-7.6641,0,0,0
-0.2266,0.283,0.9177,-7.771,-40.9466,-9.4962,0,0,0
-0.1709,0.2632,0.8987,-9.4656,-47.8092,-10.0382,0,0,0
-0.1682,0.2407,0.9136,-9.7863,-51.9847,-11.542,0,0,0
-0.1448,0.241,0.9546,-9.6641,-53.5725,-11.626,0,0,0
-0.1079,0.249,1.0063,-9.6718,-51.9771,-11.6794,0,0,0
-0.0769,0.2458,1.0532,-10.4962,-46.5573,-9.7634,0,0,0
-0.0737,0.2773,1.0896,-11.1679,-37.4122,-8.5115,0,0,0
-0.0676,0.2734,1.0996,-10.6641,-25.4275,-10.5191,0,0,0
-0.092,0.2539,1.0833,-7.855,-20.1298,-13.458,0,0,0
-0.0911,0.2529,1.0686,-3.7634,-16.9008,-18.0763,0,0,0
-0.1099,0.2832,1.0356,-1.4962,-15.8702,-22.5802,0,0,0
-0.1292,0.2878,1.0061,0.313,-19.2519,-27.5267,0,0,0
-0.1182,0.262,0.9683,1.2824,-23.9313,-31.2137,0,0,0
-0.1497,0.2471,0.9092,0.7405,-30.2901,-32.5038,0,0,0
-0.1545,0.2205,0.8992,2.8168,-40.5191,-32.7939,0,0,0
-0.1296,0.2078,0.9082,7.2977,-49.1298,-32.2824,0,0,0
-0.0769,0.2175,0.9456,14.1069,-55.8168,-32.3664,0,0,0
-0.0559,0.2258,0.9727,19.771,-56.1374,-35.0611,0,0,0
-0.0452,0.2471,0.9873,19.1985,-53.2748,-34.6718,0,0,0
-0.0059,0.2476,1.0249,14.3282,-48.7328,-31.9618,0,0,0
0.002,0.2781,1.0559,9.9847,-39.9389,-29.0458,0,0,0
0.0249,0.2637,1.0828,10.5573,-32.2443,-30.9313,0,0,0
-0.0071,0.2729,1.0652,10.9237,-23.6336,-31.2672,0,0,0
-0.0173,0.2502,1.0388,11.3435,-19.6565,-30.374,0,0,0
-0.0129,0.2527,1.0327,13.0305,-16.0305,-27.374,0,0,0
-0.0173,0.2554,1.019,16.2443,-13.3817,-25.4122,0,0,0
-0.0112,0.2708,1.0022,19.6565,-10.7252,-26.229,0,0,0
-0.0208,0.2725,0.9873,20.6031,-10.7328,-27.626,0,0,0
-0.0293,0.2871,0.9785,17.3282,-10.3511,-26.313,0,0,0
-0.0195,0.2852,0.9954,13.6336,-10.6183,-25.4122,0,0,0
-0.0183,0.3118,1.0034,12.5344,-9.8168,-25.7863,0,0,0
-0.021,0.3071,1.0088,15.5267,-9.771,-33.7481,0,0,0
-0.0071,0.3005,1.0081,18.458,-7.4962,-38.4885,0,0,0
-0.0205,0.2744,0.9958,17.7939,-6.0611,-37.5649,0,0,0
-0.0059,0.2275,0.9973,17.4198,-3.5038,-30.4351,0,0,0
-0.0078,0.2385,0.9893,17.5344,-0.5191,-22.1756,0,0,0
0.001,0.2683,0.9941,15.5954,1.8244,-18.8168,0,0,0
-0.0142,0.2942,0.9902,11.2824,4.5649,-17.6336,0,0,0
-0.03,0.3169,0.9956,5.8397,4.5802,-17.1908,0,0,0
-0.0295,0.3423,0.9922,1.7252,4.9771,-17.5649,0,0,0
0.0034,0.3367,1.0103,-0.3511,6.9771,-20.1298,0,0,0
-0.0203,0.311,1.0232,-1.9084,11.5191,-21.6412,0,0,0
-0.0259,0.2864,1.0215,-3.229,15.8244,-18.2366,0,0,0
-0.0408,0.2939,1.0034,-3.6718,18.3817,-15.9237,0,0,0
-0.0608,0.3162,0.9839,-4.8931,18.6031,-14.8855,0,0,0
-0.0576,0.325,0.998,-4.6565,17.0076,-19.2061,0,0,0
-0.0552,0.3228,0.9968,-3.2443,18.3588,-23.4046,0,0,0
-0.061,0.304,0.9829,-4.3359,18.9389,-23.7939,0,0,0
-0.0688,0.2795,0.9778,-4.0992,18.8473,-21.8779,0,0,0
-0.0715,0.2695,0.9739,-2.9771,19.7328,-20.2214,0,0,0
-0.0881,0.29,0.9687,-1.4809,19.1603,-18.5038,0,0,0
-0.0859,0.2896,0.9612,-0.8244,17.4275,-19.0,0,0,0
-0.1074,0.3149,0.9502,-1.7481,14.7099,-18.9847,0,0,0
-0.1147,0.3047,0.9448,-3.8015,11.4046,-18.7328,0,0,0
-0.1006,0.3025,0.9529,-5.626,9.5649,-17.7328,0,0,0
-0.0876,0.269,0.9773,-5.2748,10.4122,-17.8168,0,0,0
-0.0864,0.291,0.9846,-3.4885,11.9084,-17.145,0,0,0
-0.0835,0.2878,0.9805,-3.3053,15.0153,-18.5191,0,0,0
-0.1143,0.2673,0.9604,-3.5802,15.0382,-16.4809,0,0,0
-0.1238,0.2681,0.9448,-4.0,13.2061,-13.9084,0,0,0
-0.1165,0.252,0.9507,-2.542,11.4122,-12.8168,0,0,0
-0.1174,0.2776,0.9468,-3.1527,9.6489,-10.6565,0,0,0
-0.1321,0.2576,0.9475,-3.9008,7.2519,-8.6641,0,0,0
-0.1375,0.2764,0.9521,-4.5802,4.0763,-6.9771,0,0,0
-0.1211,0.262,0.9539,-4.5878,3.2061,-6.0611,0,0,0
-0.1277,0.2744,0.9668,-4.855,2.9695,-5.0611,0,0,0
-0.1252,0.2646,0.9734,-4.6412,2.2061,-5.626,0,0,0
-0.1406,0.2664,0.9565,-5.7023,1.0076,-4.1679,0,0,0
-0.1362,0.2603,0.9519,-5.9008,-0.7863,-2.9924,0,0,0
-0.1394,0.2783,0.9712,-5.5954,-1.9389,-2.4427,0,0,0
-0.1311,0.2725,0.9773,-5.145,-2.3893,-3.0611,0,0,0
-0.1387,0.2925,0.9792,-6.0305,-2.7252,-2.9313,0,0,0
-0.1287,0.2825,0.9905,-7.5038,-3.4275,-4.3206,0,0,0
-0.1106,0.271,0.9983,-11.084,-1.6107,-3.5267,0,0,0
-0.1064,0.2461,1.0117,-14.5802,1.6183,-2.6947,0,0,0
-0.1023,0.2141,1.0344,-16.2366,4.7405,1.0534,0,0,0
-0.0989,0.2021,1.0447,-17.8092,9.374,7.4733,0,0,0
-0.0117,0.1812,1.1648,-23.3206,19.145,16.4275,0,0,0
-0.0325,0.229,1.1589,-34.6336,41.2214,31.8779,0,0,0
-0.0725,0.2092,1.062,-53.5954,56.4046,51.8473,0,0,0
-0.1501,0.1587,0.9478,-71.2595,60.0,73.0305,0,0,0
-0.1782,0.1387,0.9016,-81.5115,51.1908,87.1298,0,0,0
-0.2048,0.2322,0.8958,-79.2824,34.7252,84.1069,0,0,0
-0.1577,0.2151,0.9719,-58.8168,22.5038,56.9466,0,0,0
-0.166,0.3213,1.0046,-42.7634,18.4809,31.7786,0,0,0
-0.1587,0.2964,1.01,-37.5573,18.7023,18.1832,0,0,0
-0.1299,0.2451,1.04,-33.9237,22.6794,15.5802,0,0,0
-0.1589,0.1924,1.0176,-32.1603,28.2443,21.2443,0,0,0
-0.1787,0.1436,0.9663,-31.0,31.0382,25.6489,0,0,0
-0.2117,0.1321,0.9202,-30.8168,28.4504,28.0229,0,0,0
-0.2366,0.1572,0.8989,-32.1374,21.1603,30.2443,0,0,0
-0.241,0.1494,0.9053,-27.542,11.6412,25.1145,0,0,0
-0.2271,0.1907,0.9504,-22.0458,3.9389,20.542,0,0,0
-0.2065,0.2112,0.9797,-17.0611,-0.2443,18.0305,0,0,0
-0.1978,0.1982,0.9844,-12.1603,-0.8321,15.1145,0,0,0
-0.2039,0.2002,0.9939,-5.6336,-0.8015,14.0611,0,0,0
-0.2161,0.1948,0.9812,-4.2824,-2.4351,13.2519,0,0,0
-0.2136,0.2136,0.9561,-6.2519,-5.2672,13.3435,0,0,0
-0.1946,0.2058,0.9526,-10.3435,-8.2901,13.1221,0,0,0
-0.1729,0.1624,0.9883,-12.1298,-8.229,11.1221,0,0,0
-0.1707,0.1792,1.0044,-13.5496,-6.8779,11.9771,0,0,0
-0.1592,0.1646,1.0024,-13.4733,-6.855,13.2977,0,0,0
-0.1624,0.1611,0.9976,-10.9618,-5.6794,13.9237,0,0,0
-0.1716,0.1572,0.9902,-8.8931,-7.2137,14.1603,0,0,0
-0.1829,0.1458,0.9873,-6.6031,-7.6107,14.1985,0,0,0
-0.1716,0.1489,0.9971,-4.0763,-10.0763,13.5725,0,0,0
-0.1599,0.1655,1.0208,-2.4656,-9.6183,15.3206,0,0,0
-0.1599,0.1687,1.0181,-3.3053,-8.6412,17.4504,0,0,0
-0.1365,0.1863,1.0173,-6.2214,-6.4351,17.7176,0,0,0
-0.1401,0.1836,1.0005,-7.3511,-4.2214,15.2595,0,0,0
-0.1423,0.1726,1.0146,-7.229,-1.5725,11.6489,0,0,0
-0.1458,0.1768,1.0127,-4.5038,-0.3969,7.3206,0,0,0
-0.1714,0.1707,0.9956,0.3817,-0.2137,2.4275,0,0,0
-0.1758,0.1963,0.9983,2.0153,-1.7405,-1.4198,0,0,0
-0.1685,0.1963,0.998,2.145,-2.5344,-2.8168,0,0,0
-0.1655,0.187,0.9961,1.1145,-3.2443,-3.8931,0,0,0
-0.082,0.0215,1.2717,4.4656,7.8168,-9.313,0,0,0
-0.1394,0.2097,0.9932,-0.6718,-7.4275,-7.2595,0,0,0
-0.2251,0.1772,0.99,-0.542,-7.3053,-10.4275,0,0,0
-0.1626,0.167,1.0078,4.3511,-6.7786,-13.5725,0,0,0
-0.1672,0.1863,1.0134,8.6183,-5.4122,-16.7557,0,0,0
-0.155,0.177,1.0168,10.145,-2.687,-17.4656,0,0,0
-0.1416,0.1794,1.0237,11.229,-0.0382,-15.8473,0,0,0
-0.1406,0.1726,1.0352,10.916,3.1985,-15.9008,0,0,0
-0.3169,0.1589,0.938,8.626,5.771,-15.8931,0,0,0
-0.1709,0.1821,1.0054,8.9466,5.3969,-12.4504,0,0,0
-0.1838,0.1738,0.9912,7.3893,2.855,-11.855,0,0,0
-0.186,0.1641,0.9844,7.4046,-0.7557,-12.9008,0,0,0
-0.1865,0.1794,0.9788,6.9237,-4.5954,-14.0687,0,0,0
-0.2324,0.1189,0.9624,5.2137,-10.4885,-16.1298,0,0,0
-0.1504,0.1863,1.0037,5.2595,-8.6412,-11.084,0,0,0
-0.1472,0.1499,0.9961,2.3588,-7.5267,-7.2214,0,0,0
-0.1404,0.1353,1.0042,3.8931,-2.4046,-3.4885,0,0,0
-0.1443,0.1445,1.0095,5.3053,0.9389,-1.8702,0,0,0
-0.177,0.1411,0.9912,5.3359,2.8244,0.8015,0,0,0
-0.1802,0.1621,0.991,5.9618,0.458,2.9084,0,0,0
-0.1689,0.1765,0.9863,6.9008,-0.542,2.9084,0,0,0
-0.1643,0.1802,0.9875,6.1221,-2.0916,0.8015,0,0,0
-0.157,0.1758,1.0073,6.2061,-0.5115,0.2214,0,0,0
-0.179,0.1687,0.9868,6.0153,-0.7634,1.6412,0,0,0
-0.1719,0.1743,1.0071,5.1756,-1.2824,3.4885,0,0,0
-0.1565,0.1931,1.0059,2.6336,0.542,4.8015,0,0,0
-0.1497,0.1909,1.0078,0.1145,2.8473,4.145,0,0,0
-0.1707,0.1978,0.9951,-1.9008,3.4122,3.2061,0,0,0
-0.1851,0.1824,0.9834,-3.8244,-1.5115,3.0687,0,0,0
-0.1804,0.1609,0.9751,-4.8244,-4.7023,4.5496,0,0,0
-0.1658,0.1621,0.9795,-6.0458,-8.4351,6.1679,0,0,0
-0.1689,0.1394,0.9878,-5.3817,-10.5573,8.3206,0,0,0
-0.147,0.1392,1.0549,-4.6718,-9.3282,11.1985,0,0,0
-0.1221,0.1543,1.0391,-5.1298,-4.145,13.8092,0,0,0
-0.1506,0.1624,1.0071,-6.4809,-3.2748,14.9237,0,0,0
-0.1682,0.2041,0.9966,-10.0305,-5.229,16.4427,0,0,0
-0.1628,0.1936,0.9968,-13.8244,-8.7252,17.3435,0,0,0
-0.1609,0.1912,0.9971,-17.626,-10.5954,18.4275,0,0,0
-0.1316,0.1389,1.0295,-18.0687,-8.0382,22.2748,0,0,0
-0.1125,0.1401,1.0244,-16.1985,-4.9847,26.6641,0,0,0
-0.2166,0.1501,0.9517,-16.2443,-13.9847,22.5191,0,0,0
-0.1882,0.2019,0.9788,-17.4427,-19.9618,19.145,0,0,0
-0.1348,0.1812,1.0066,-13.626,-19.7023,15.6718,0,0,0
-0.106,0.1594,1.0283,-7.0076,-15.0,13.145,0,0,0
-0.0845,0.1321,1.0498,-2.7481,-7.1221,14.8244,0,0,0
-0.0947,0.1379,1.0576,2.3664,0.1069,20.3282,0,0,0
-0.093,0.1521,1.0671,4.2366,3.458,27.4962,0,0,0
-0.1055,0.2253,1.0144,4.3817,4.4427,31.4504,0,0,0
-0.1375,0.2515,1.01,1.7252,4.6412,24.7634,0,0,0
-0.1245,0.2927,0.9866,-3.084,1.0458,12.8092,0,0,0
-0.1482,0.2705,0.9695,-7.9771,-2.458,4.3969,0,0,0
-0.1814,0.2275,0.967,-8.6107,-6.8168,1.6336,0,0,0
-0.1714,0.2202,0.946,-6.626,-9.1374,-1.4504,0,0,0
-0.1846,0.1536,0.9719,-4.2443,-12.8473,3.7405,0,0,0
-0.1758,0.179,0.9373,-3.4122,-14.8015,9.855,0,0,0
-0.123,0.1772,0.9482,-3.0153,-16.2061,7.6489,1,0,0
-0.1545,0.2041,0.9761,-4.4275,-17.5954,5.5878,1,0,0
-0.0896,0.1382,0.9893,-8.8779,-15.7481,8.9771,1,0,0
-0.0933,0.1021,1.0168,-3.9847,-7.8168,12.084,1,0,0
-0.1047,0.1316,1.0305,7.6183,-5.4122,14.7786,1,0,0
-0.0273,0.1707,1.075,13.542,0.1908,9.5725,1,0,0
-0.0271,0.1482,1.0261,14.8779,1.9924,7.9008,1,0,0
-0.054,0.1819,1.0403,15.5115,7.3664,7.4275,1,0,0
-0.0869,0.2563,1.043,8.5038,11.1679,4.6412,1,0,0
-0.1096,0.1887,1.0242,0.0611,7.3359,1.8855,1,0,0
-0.1624,0.2637,0.9543,-7.8473,-1.3053,2.771,1,0,0
-0.1646,0.252,0.9209,-14.8931,-12.0916,-1.1221,0,0,0
-0.1292,0.1179,0.9575,-13.4962,-19.6641,-1.3817,0,0,0
-0.1377,0.0979,0.9719,-6.4656,-24.0992,1.542,0,0,0
-0.1055,0.1462,0.9783,-2.4656,-27.2443,2.313,0,0,0
-0.0605,0.1572,1.0098,-0.8244,-23.7176,2.4885,0,0,0
-0.1133,0.1711,0.9324,2.3282,-15.0763,-0.5802,0,0,0
-0.0735,0.1667,1.0486,4.5802,-10.0229,1.687,0,0,0
-0.0618,0.1638,1.0374,5.4122,-5.2366,1.3893,0,0,0
-0.0808,0.1804,1.0403,4.7786,-2.3435,4.3359,0,0,0
-0.0278,0.2239,1.0481,-0.9313,3.8931,4.5725,0,0,0
-0.0779,0.2212,1.0444,-3.1832,9.0687,1.4198,0,0,0
-0.0842,0.1963,1.0359,-4.7252,9.0992,-1.374,0,0,0
-0.0828,0.1721,1.0164,-0.4504,10.7099,-4.0534,0,0,0
-0.1113,0.1746,0.9985,3.7328,7.6031,-8.3893,0,0,0
-0.0903,0.1763,1.0085,6.9237,4.9618,-9.3511,0,0,0
-0.0847,0.1453,0.9985,11.3893,4.1145,-9.2519,0,0,0
-0.0408,0.2178,1.0723,11.8473,8.5878,-20.0153,0,0,0
-0.0657,0.2505,1.0007,14.5573,4.4504,-19.7099,0,0,0
-0.1128,0.231,0.9678,15.2824,0.0,-24.0305,0,0,0
-0.125,0.2378,0.9368,9.7939,-2.7786,-25.2672,0,0,0
-0.1284,0.1938,0.9802,7.8626,-3.8321,-23.1298,0,0,0
-0.1147,0.1575,0.9919,7.6107,-5.9542,-19.9008,0,0,0
-0.1694,0.3611,0.9507,2.1908,-2.5038,-14.4962,0,0,0
-0.0667,0.2244,1.053,-1.2214,3.458,-9.7939,1,0,0
-0.0798,0.2356,1.0354,-6.8092,7.7328,-8.7557,1,0,0
-0.1179,0.2402,1.0205,-8.1527,7.1221,-7.4885,1,0,0
-0.1255,0.2725,1.0005,-16.0153,4.1145,-11.1985,1,0,0
-0.1489,0.1924,0.978,-15.9618,-0.5115,-13.0229,1,0,0
-0.1287,0.1692,0.9727,-14.7176,-6.374,-11.3053,1,0,0
-0.1282,0.1626,0.9578,-15.229,-5.8321,-8.8015,1,0,0
-0.1038,0.1711,0.9932,-14.4427,-5.3817,-6.6641,1,0,0
-0.075,0.1638,1.0132,-14.2595,-1.7328,-4.5496,1,0,0
-0.0659,0.1902,1.0449,-16.6641,4.0305,-4.6641,1,0,0
-0.0801,0.1575,1.0134,-16.0763,5.8168,-4.0,1,0,0
-0.0928,0.1323,0.9966,-12.4504,6.9542,-0.8321,1,0,0
-0.1313,0.1228,0.9712,-7.9466,4.4885,1.2061,1,0,0
-0.1409,0.1155,0.9661,-3.5573,0.1908,2.084,1,0,0
-0.1206,0.1218,0.9863,0.458,-3.1145,3.6565,1,0,0
-0.1025,0.1282,0.9822,3.3359,-1.8931,5.8321,1,0,0
-0.0918,0.178,1.0156,0.084,-1.5038,6.7405,1,0,0
-0.061,0.1609,1.0383,0.0382,3.4198,6.3817,1,0,0
-0.0557,0.178,1.0481,1.8397,10.2977,5.3893,1,0,0
-0.0649,0.179,1.0554,0.8702,17.3969,4.4351,1,0,0
-0.1025,0.2122,1.0598,-3.2901,20.7939,2.9389,1,0,0
-0.1187,0.1733,1.0398,-5.9313,20.9008,0.3664,1,0,0
-0.1221,0.1846,1.0547,-6.8397,21.4733,-1.9847,1,0,0
-0.1553,0.1257,0.9829,-2.7786,17.5649,-0.2824,1,0,0
-0.1853,0.1511,0.9602,1.5344,11.084,0.4733,1,0,0
-0.179,0.1997,0.96,-1.374,3.5649,2.7099,1,0,0
-0.1575,0.189,0.9875,-3.9466,0.4275,1.5573,1,0,0
-0.1367,0.1436,1.0115,-1.9847,-0.313,2.4046,1,0,0
-0.1101,0.1499,1.0312,4.7863,1.687,4.084,0,0,0
-0.0952,0.2014,1.0554,7.2595,7.0916,3.9084,0,0,0
-0.1172,0.2295,1.0408,5.9389,12.0611,0.145,0,0,0
-0.1602,0.2207,0.9963,3.916,9.9466,-1.2214,0,0,0
-0.1768,0.2168,0.9976,-0.3588,4.8321,-2.8473,0,0,0
-0.1941,0.2305,0.97,-5.8702,-3.2137,-3.145,0,0,0
-0.1731,0.1904,0.9802,-7.9924,-10.8473,-3.0992,0,0,0
-0.1201,0.1719,1.0063,-7.9084,-11.1908,-2.3435,0,0,0
-0.0908,0.1641,1.0308,-6.626,-6.9008,-2.1985,0,0,0
-0.0933,0.1763,1.0464,-5.3435,-0.8092,-3.2137,0,0,0
-0.1196,0.1626,1.0288,-3.2443,3.0229,-2.3588,0,0,0
-0.1287,0.1594,1.0164,-0.3053,3.0611,0.0229,0,0,0
-0.1387,0.1768,0.9814,0.626,0.0534,0.8931,0,0,0
-0.1294,0.189,0.9858,-1.0458,-1.2672,1.0458,0,0,0
-0.1343,0.1785,0.9785,-2.4809,-1.8397,1.0458,0,0,0
-0.1294,0.1753,0.9905,-3.4198,-3.1145,2.3969,0,0,0
-0.1309,0.1802,0.9863,-4.3435,-4.1756,3.3817,0,0,0
-0.1326,0.1765,0.9905,-4.6336,-5.1527,3.8702,0,0,0
-0.1228,0.1804,0.9868,-4.458,-5.2824,3.8015,0,0,0
-0.1272,0.1897,0.9875,-3.8397,-4.4275,3.2672,0,0,0
-0.1353,0.187,0.9905,-3.8473,-3.9618,2.0,0,0,0
-0.1482,0.2217,0.9639,-6.3511,-5.2672,0.5954,0,0,0
-0.1377,0.1885,0.9687,-9.9695,-8.4046,0.2748,0,0,0
-0.1187,0.1465,0.9749,-7.6565,-7.8092,0.4962,0,0,0
-0.1201,0.1484,0.9917,-4.0687,-6.6183,0.6183,0,0,0
-0.1155,0.1541,0.9963,-0.5878,-4.8931,-1.313,0,0,0
-0.1282,0.1672,0.9788,1.4275,-5.2824,-1.9008,0,0,0
-0.1384,0.1804,0.9531,1.1985,-7.3435,-2.0,0,0,0
-0.1355,0.1541,0.9946,-0.2824,-9.3435,-1.6947,0,0,0
-0.1113,0.144,0.989,0.9542,-9.0305,0.6565,0,0,0
-0.1047,0.1428,0.9978,3.3664,-8.7023,1.7176,0,0,0
-0.1104,0.1804,1.0134,3.2748,-6.9924,1.5802,0,0,0
-0.093,0.1914,1.0283,1.8092,-4.2366,0.9618,0,0,0
-0.0969,0.188,1.0425,1.3969,-1.1527,-0.145,0,0,0
-0.1101,0.1589,1.0183,2.0153,-0.5344,0.1069,0,0,0
-0.1292,0.1562,0.9995,3.4122,-2.7786,1.084,0,0,0
-0.1172,0.1775,1.0112,4.2519,-3.7786,1.4046,0,0,0
-0.0986,0.188,1.0327,4.6336,-1.0382,0.916,0,0,0
-0.0974,0.178,1.0442,5.9542,2.8473,-0.6641,0,0,0
-0.1143,0.1921,1.0554,6.4198,5.7176,-1.2519,0,0,0
-0.1238,0.2168,1.0288,5.6183,6.0763,-1.9542,0,0,0
-0.1179,0.2073,1.0078,3.6794,5.6336,-2.9618,0,0,0
-0.1118,0.1636,1.0012,4.1985,6.3359,-2.9237,0,0,0
-0.1418,0.1445,0.9827,7.7176,3.4122,4.2214,0,0,0
-0.144,0.1643,0.9949,9.1603,-0.0305,8.9084,0,0,0
-0.127,0.2048,1.0066,8.4733,-0.5115,10.0229,0,0,0
-0.1147,0.2192,0.9937,5.4656,-1.5496,10.8092,0,0,0
-0.1282,0.2036,0.9807,3.8015,-4.7328,10.542,0,0,0
0.842,0.6392,1.2329,-3.6107,20.2443,11.3893,0,0,0
-0.146,0.2388,0.9734,3.0611,0.6489,5.9237,0,0,0
-0.1226,0.2056,1.0667,9.7557,-6.3511,1.8702,0,0,0
-0.1721,0.209,0.9272,10.5649,1.1374,-2.2137,0,0,0
-0.1794,0.2544,0.9827,2.1603,-10.4427,-1.0305,0,0,0
-0.1257,0.1885,0.9792,-0.3588,-14.5725,-1.4427,0,0,0
-0.0999,0.2004,0.9773,-2.458,-14.7099,-0.1756,0,0,0
-0.1133,0.1658,1.0129,-0.4885,-12.771,3.1832,0,0,0
-0.1152,0.2053,0.99,-1.7863,-15.145,3.9313,0,0,0
-0.0964,0.2227,0.9966,-2.9771,-15.2824,1.0,0,0,0
-0.0835,0.2332,0.9895,-5.1221,-15.2977,-1.458,0,0,0
-0.0898,0.1931,1.0264,-6.1832,-11.5267,-1.9237,0,0,0
-0.0837,0.1785,1.0032,-2.3664,-10.5038,-0.8168,0,0,0
-0.095,0.2039,1.0042,-1.1832,-9.3817,-1.2061,0,0,0
-0.1025,0.2292,0.9966,-2.9389,-10.0916,-0.8473,0,0,0
-0.0984,0.2026,0.9978,-4.2214,-12.5267,1.0763,0,0,0
-0.0818,0.178,1.0005,-3.4122,-13.1908,2.5573,0,0,0
-0.0598,0.1926,1.0166,-1.6718,-10.374,2.9695,0,0,0
-0.0491,0.2087,1.0234,-0.8397,-5.1832,1.7328,0,0,0
-0.072,0.2056,1.0132,-0.3511,-1.855,0.6412,0,0,0
-0.0847,0.2153,1.0027,0.145,-2.1221,0.4733,0,0,0
-0.0803,0.2056,1.0015,0.3664,-2.6641,-0.4733,0,0,0
-0.0957,0.2212,0.99,0.5954,-3.3359,-1.1908,0,0,0
-0.1023,0.2319,0.9902,-0.916,-6.0305,-1.9084,0,0,0
-0.095,0.2231,1.0022,-2.5878,-7.5115,-2.1985,0,0,0
-0.0808,0.2261,1.0159,-3.6031,-7.6336,-1.6565,0,0,0
-0.0642,0.2183,1.032,-4.0153,-4.8931,-1.7863,0,0,0
-0.0693,0.2131,1.022,-3.458,-2.0534,-2.0076,0,0,0
-0.0972,0.207,0.9963,-3.6412,-3.9847,-1.5725,0,0,0
-0.0979,0.2061,0.9934,-3.6565,-7.5802,-2.2595,0,0,0
-0.0752,0.2007,1.0071,-3.2519,-8.9084,-1.7099,0,0,0
-0.0618,0.2,1.0139,-3.4198,-8.0382,-1.3817,0,0,0
-0.0642,0.196,1.0234,-3.4427,-5.916,-1.6641,0,0,0
-0.0635,0.2004,1.021,-3.3511,-3.9695,-1.7786,0,0,0
-0.0803,0.2019,1.0093,-4.0229,-5.145,-2.5802,0,0,0
-0.0789,0.2034,1.0063,-4.1069,-6.5573,-2.1298,0,0,0
-0.0647,0.2014,1.0076,-3.7863,-6.2672,-2.7252,0,0,0
-0.0576,0.1956,1.0339,-1.5267,-4.7557,-2.9237,0,0,0
-0.0662,0.1995,1.0247,-1.1374,-3.4809,-3.3588,0,0,0
-0.0725,0.1895,1.0222,-1.2672,-3.2672,-2.2519,0,0,0
-0.0515,0.1855,0.9951,-2.542,-5.9466,-0.6565,0,0,0
-0.0886,0.1797,0.9905,0.0534,-8.8779,-0.9313,0,0,0
-0.0513,0.175,1.0088,2.9618,-7.2137,-0.8931,0,0,0
-0.0518,0.1887,1.012,4.0611,-4.9847,-0.916,0,0,0
-0.0295,0.1987,1.0203,3.5344,-1.4656,-1.3969,0,0,0
-0.0483,0.2095,1.009,2.6641,1.8855,-2.2901,0,0,0
-0.0566,0.1975,1.0168,2.771,2.2443,-1.2748,0,0,0
-0.0642,0.2214,0.998,2.0687,1.3969,-1.4962,0,0,0
-0.0674,0.2065,0.9841,2.2977,0.7634,-2.3817,0,0,0
-0.0676,0.2029,0.9897,2.8626,0.1069,-2.6107,0,0,0
-0.071,0.1838,1.0012,3.8321,-1.3511,-1.9847,0,0,0
-0.071,0.1926,1.0054,4.4809,-2.1679,-1.855,0,0,0
-0.072,0.2131,0.9963,2.9771,-2.3359,-1.7176,0,0,0
-0.063,0.2034,1.0078,2.7023,-1.9618,-1.1603,0,0,0
-0.0583,0.2068,1.0137,3.2977,-0.7863,-1.7939,0,0,0
-0.0464,0.2156,1.0205,3.9695,2.0458,-1.9084,0,0,0
-0.0576,0.2195,1.0225,4.0763,4.5344,-2.5496,0,0,0
-0.0649,0.2334,1.0186,3.5954,5.3969,-3.458,0,0,0
-0.0696,0.2253,0.989,1.5344,3.4351,-3.4962,0,0,0
-0.0845,0.2178,0.9807,-0.229,0.1374,-3.542,0,0,0
-0.073,0.2126,0.9841,-1.0916,-2.7099,-2.4962,0,0,0
-0.0652,0.2053,1.0015,-1.6641,-2.9008,-1.374,0,0,0
-0.0596,0.1992,1.0115,-1.084,-2.3053,-1.1908,0,0,0
-0.0659,0.2073,1.0012,-0.4275,-1.9924,-0.6412,0,0,0
-0.0649,0.2124,0.9932,-0.458,-2.3664,-0.8473,0,0,0
-0.0559,0.231,1.0083,-1.2061,-1.8473,-2.0153,0,0,0
-0.0525,0.2175,1.0156,-1.0916,0.6718,-2.6107,0,0,0
-0.0671,0.2217,1.0217,0.5038,2.4046,-2.6336,0,0,0
-0.0725,0.2473,0.9976,-0.4351,2.2901,-3.1908,0,0,0
-0.0837,0.2388,0.9934,-2.9237,0.3511,-3.6107,0,0,0
-0.0774,0.2258,1.0032,-5.1603,-1.3664,-3.4962,0,0,0
-0.0781,0.2146,0.99,-5.8779,-3.1374,-2.9008,0,0,0
-0.0701,0.21,1.0032,-5.5267,-3.7939,-3.0916,0,0,0
-0.0745,0.2014,0.9924,-4.4275,-5.4122,-2.6336,0,0,0
-0.0632,0.1995,0.9961,-2.7328,-5.8092,-2.4733,0,0,0
-0.0505,0.2141,1.0059,-2.313,-4.3588,-3.2901,0,0,0
-0.0452,0.2058,1.0115,-2.771,-3.3282,-3.0534,0,0,0
-0.0544,0.2021,1.0081,-2.916,-2.0153,-2.5191,0,0,0
-0.0588,0.1987,1.0063,-2.3435,-2.0229,-1.626,0,0,0
-0.0574,0.2065,1.0166,-2.2214,-1.4885,-1.9313,0,0,0
-0.0574,0.207,1.0103,-2.4046,-1.3511,-1.5344,0,0,0
-0.0562,0.2056,1.0042,-2.6794,-0.7328,-1.4885,0,0,0
-0.0535,0.2107,1.0002,-3.5267,-0.7252,-1.2748,0,0,0
-0.0466,0.2075,1.0186,-3.2366,1.2061,-1.9847,0,0,0
-0.0481,0.2151,1.0254,-3.9542,2.5267,-1.8931,0,0,0
-0.0564,0.2041,1.0146,-2.8779,3.0305,-1.4198,0,0,0
-0.0642,0.2012,1.0161,-1.3511,2.7786,-0.2748,0,0,0
-0.0596,0.2214,1.0034,-1.6336,2.8092,-0.2748,0,0,0
-0.0605,0.217,1.0107,-1.9618,2.6336,-0.2595,0,0,0
-0.053,0.2141,1.0256,-1.9313,4.6183,-0.8321,0,0,0
-0.051,0.2183,1.0222,-1.5878,6.5115,-0.6641,0,0,0
-0.0535,0.2192,1.0164,-2.6718,8.1527,-0.9237,0,0,0
-0.0635,0.2219,1.0115,-4.1985,8.7252,-1.5115,0,0,0
-0.0786,0.2063,0.9941,-3.4275,8.2901,-1.6641,0,0,0
-0.0906,0.2056,0.9863,-1.7405,5.1756,-0.9237,0,0,0
-0.0759,0.2122,1.0037,-0.3588,4.3588,-0.4046,0,0,0
-0.0625,0.2109,1.0203,-0.313,5.7786,0.2366,0,0,0
-0.0603,0.2051,1.0273,-1.1145,8.1145,1.5802,0,0,0
-0.0723,0.2168,1.0271,-2.8779,9.3969,3.3969,0,0,0
-0.0789,0.2244,1.0083,-5.2214,9.1985,3.9008,0,0,0
-0.093,0.2214,1.0127,-8.5573,7.6336,4.6947,0,0,0
-0.0945,0.2041,0.9895,-10.1756,5.0534,6.2519,0,0,0
-0.0916,0.1953,0.9944,-9.9695,3.3817,7.1145,0,0,0
-0.0796,0.1904,1.0042,-10.1374,3.6794,7.8015,0,0,0
-0.0818,0.2007,1.0017,-12.2061,4.8779,8.4046,0,0,0
-0.3997,0.137,0.9189,-16.0611,9.4427,10.9237,0,0,0
-0.0732,0.2014,1.0029,-15.771,9.4656,11.1679,0,0,0
-0.1277,0.1606,0.9922,-16.2977,5.6107,13.4198,0,0,0
-0.0603,0.1963,1.0359,-19.5496,6.084,17.1679,0,0,0
-0.0918,0.1643,1.0425,-21.542,6.6336,19.2061,0,0,0
-0.0908,0.1704,1.0193,-20.5954,6.4122,17.8931,0,0,0
-0.1023,0.1763,1.0022,-19.0,5.6565,15.4427,0,0,0
-0.0869,0.1904,1.0139,-18.8092,5.8015,13.4733,0,0,0
-0.2234,0.1223,0.9651,-19.771,15.5725,14.1221,0,0,0
-0.1113,0.1292,1.0081,-14.6412,11.4046,15.8855,0,0,0
-0.1287,0.1687,1.0127,-12.2137,12.084,14.9695,0,0,0
-0.1067,0.1924,1.0005,-13.7328,8.5954,14.0305,0,0,0
-0.1157,0.1704,0.9905,-17.0534,7.374,14.2901,0,0,0
-0.1165,0.1692,0.9968,-16.7328,4.5954,13.084,0,0,0
-0.1191,0.1628,1.0005,-14.687,2.5344,11.5878,0,0,0
-0.1108,0.1746,0.9949,-11.7099,0.6183,9.3282,0,0,0
-0.0898,0.1628,1.0103,-7.2977,1.0305,7.5191,0,0,0
-0.0903,0.1716,1.0239,-4.1145,3.4656,5.687,0,0,0
-0.0872,0.1765,1.0242,-3.3817,4.2748,4.2137,0,0,0
-0.1975,0.1189,1.0049,-1.1832,6.4656,2.9847,0,0,0
-0.1082,0.1858,0.9922,0.2672,3.0916,2.2443,0,0,0
-0.0986,0.1836,0.9934,0.6947,1.4275,1.0153,0,0,0
-0.1082,0.1619,1.0044,1.9847,0.4504,-0.1527,0,0,0
-0.0989,0.1726,1.0105,3.5115,1.1603,-0.8779,0,0,0
-0.0886,0.1733,1.0229,3.5115,2.7939,-1.1145,0,0,0
-0.094,0.1882,1.0232,1.0763,4.3435,-0.5344,0,0,0
-0.0999,0.1758,1.0286,-2.4122,4.0687,-0.0687,0,0,0
-0.0913,0.1626,1.0193,-4.6107,4.9542,1.5573,0,0,0
-0.1099,0.1582,1.0039,-4.916,4.626,2.4885,0,0,0
-0.1118,0.1729,0.9866,-5.3435,1.5725,2.5725,0,0,0
-0.1145,0.1533,0.9805,-4.1679,0.0687,1.313,0,0,0
-0.104,0.1499,0.9814,-1.626,-1.9618,1.3206,0,0,0
-0.0913,0.1433,1.0103,1.1832,-0.6565,1.7252,0,0,0
-0.0842,0.1638,1.0073,2.145,1.626,1.5725,0,0,0
-0.0942,0.179,1.0066,1.6107,2.9389,1.0153,0,0,0
-0.0945,0.1763,1.0012,0.8168,3.8015,0.1298,0,0,0
-0.1086,0.1921,1.0024,-0.3817,3.5267,-0.9771,0,0,0
-0.1108,0.1782,1.0002,-1.4656,3.1679,-1.2137,0,0,0
-0.1221,0.1689,0.9873,-0.3588,2.0076,-1.6031,0,0,0
-0.126,0.1748,0.9797,0.8702,-0.6336,-2.4351,0,0,0
-0.1016,0.1653,0.9949,1.8168,-0.8626,-2.458,0,0,0
-0.0935,0.1689,1.0024,2.2366,1.0,-2.084,0,0,0
-0.1182,0.1794,0.9956,2.8473,0.5191,-3.0687,0,0,0
-0.1135,0.1763,0.9917,3.2748,-1.0687,-3.6183,0,0,0
-0.0957,0.1873,1.0142,2.3053,-0.0458,-3.9237,0,0,0
-0.1045,0.177,1.0137,2.0153,0.9924,-5.5496,0,0,0
-0.1143,0.1697,1.0044,3.1221,-1.1221,-6.6031,0,0,0
-0.1199,0.167,1.0166,6.2137,-2.5954,-7.6565,0,0,0
-0.1055,0.177,1.0208,8.7939,-2.0992,-9.916,0,0,0
-0.1057,0.1733,1.0312,15.458,-1.3359,-14.8779,0,0,0
-0.1108,0.2031,1.0305,20.7786,0.3282,-19.1298,0,0,0
-0.1221,0.2117,1.0171,23.626,0.6794,-22.6412,0,0,0
-0.1243,0.2219,1.01,23.7023,0.0229,-25.1221,0,0,0
-0.1282,0.2166,1.001,25.5496,-1.0534,-29.4504,0,0,0
-0.1372,0.2234,1.0093,31.6794,-3.1756,-38.4962,0,0,0
-0.135,0.2383,1.0007,41.6031,-4.7405,-48.1145,0,0,0
-0.1348,0.2898,0.9856,46.5878,-5.6641,-56.542,0,0,0
-0.1284,0.2642,1.0037,45.7863,-6.0229,-60.5496,0,0,0
-0.1289,0.2659,0.9966,44.2519,-6.3053,-62.4809,0,0,0
-0.1458,0.2478,0.9714,42.7786,-8.0076,-62.5954,0,0,0
-0.134,0.241,0.9707,38.1756,-11.3893,-58.5954,0,0,0
-0.0876,0.2458,1.0271,28.7176,-9.0382,-49.0153,0,0,0
-0.1077,0.2075,1.0156,25.229,-7.0458,-44.0611,0,0,0
-0.1155,0.24,0.9993,27.3206,-7.9389,-42.8702,0,0,0
-0.1328,0.2693,0.9858,29.5954,-8.2824,-46.7328,0,0,0
-0.1338,0.2813,0.9683,26.9771,-9.9237,-45.6718,0,0,0
-0.1145,0.1379,0.9678,24.0763,-19.542,-42.7176,0,0,0
-0.1414,0.217,1.0005,21.7786,-17.9237,-36.771,0,0,0
-0.0479,0.2585,1.051,23.5725,-5.8015,-38.9542,0,0,0
-0.136,0.2957,0.991,18.4656,0.9466,-37.916,0,0,0
-0.1143,0.2983,0.9758,9.9008,0.4809,-33.8779,0,0,0
-0.1074,0.2505,0.9927,3.6412,2.7099,-26.5344,0,0,0
-0.1179,0.2268,0.9893,2.6107,3.4198,-21.5573,0,0,0
-0.1179,0.2539,0.9749,3.9771,3.3206,-20.4656,0,0,0
-0.1233,0.2668,0.9709,3.916,4.5573,-19.3053,0,0,0
-0.1343,0.2556,0.9597,4.4733,5.2595,-19.1298,0,0,0
-0.1321,0.2451,0.9792,5.6641,5.313,-17.5725,0,0,0
-0.1362,0.2605,0.9775,6.1298,6.5649,-15.8931,0,0,0
-0.1453,0.2881,0.9678,2.4504,6.5191,-12.6947,0,0,0
-0.1631,0.2859,0.9531,-1.5115,4.7786,-11.0153,0,0,0
-0.1606,0.2703,0.9458,-3.8244,2.0229,-9.084,0,0,0
-0.1655,0.2573,0.939,-6.8855,-0.9313,-4.9847,0,0,0
-0.1553,0.2378,0.9502,-6.8779,-4.3282,-2.3206,0,0,0
-0.1255,0.2407,0.9944,-5.1069,-3.3053,-1.7023,0,0,0
-0.1233,0.2556,0.9929,-2.5573,0.1145,-1.4733,0,0,0
-0.1333,0.2788,0.9851,-0.9389,1.2137,-3.2443,0,0,0
-0.1431,0.2903,0.9893,-1.4198,1.6794,-5.6794,0,0,0
-0.1516,0.2771,0.9736,-3.5573,1.1298,-6.2214,0,0,0
-0.1404,0.2607,0.9822,-4.2443,2.4351,-4.9542,0,0,0
-0.1338,0.251,0.9976,-5.0687,3.6718,-3.3053,0,0,0
-0.1194,0.2681,1.0122,-5.0,6.8931,-3.5954,0,0,0
-0.1284,0.2805,1.0083,-4.9924,11.6489,-4.626,0,0,0
-0.1433,0.2688,1.0039,-2.8168,14.2366,-7.1756,0,0,0
-0.1514,0.272,1.0056,0.2824,16.1832,-8.5878,0,0,0
-0.1382,0.2915,1.0173,0.6718,20.2214,-9.6794,0,0,0
-0.1431,0.291,1.0312,0.5038,24.5114,-11.4122,0,0,0
-0.1421,0.3081,1.0322,1.4885,28.8244,-17.2595,0,0,0
-0.1682,0.3191,1.0073,0.0687,31.0687,-20.771,0,0,0
-0.1919,0.2893,0.9724,-3.0534,29.1908,-21.2214,0,0,0
-0.2024,0.2554,0.9668,-4.3053,27.084,-19.2061,0,0,0
-0.1841,0.2583,0.9812,-1.8321,25.5725,-19.9313,0,0,0
-0.1831,0.3113,1.0012,-2.2519,27.8473,-21.229,0,0,0
-0.4253,0.1697,0.9597,-5.4427,40.3664,-26.0763,0,0,0
-0.0601,0.2734,1.0132,-6.0458,41.2595,-21.3664,0,0,0
-0.209,0.2927,0.9443,-1.374,34.3588,-20.0611,0,0,0
-0.2163,0.261,0.9517,0.6183,31.5573,-17.229,0,0,0
-0.2656,0.261,0.9629,1.2061,30.3053,-17.7634,0,0,0
-0.2246,0.332,0.9937,3.771,30.855,-23.7939,0,0,0
-0.2187,0.3638,1.0107,1.5344,38.5115,-29.0687,0,0,0
-0.5352,0.2239,0.9495,-6.1527,46.1756,-32.6794,0,0,0
-0.2827,0.2449,0.9697,-7.9924,39.374,-32.3664,0,0,0
-0.2737,0.2505,0.9084,-7.8931,37.4275,-30.8397,0,0,0
-0.3228,0.2688,0.9119,-7.8473,29.5267,-27.9389,0,0,0
-0.3218,0.2285,0.9119,-5.084,29.7328,-28.7786,0,0,0
-0.3367,0.2488,0.8904,-4.6794,23.2977,-27.145,0,0,0
-0.4692,0.1877,0.8772,-11.7634,23.0382,-22.6412,0,0,0
-0.335,0.1758,0.908,-5.542,12.771,-23.313,0,0,0
-0.3342,0.1863,0.9277,-1.0229,10.2214,-19.6412,0,0,0
-0.303,0.2458,0.9546,-2.2519,10.1756,-17.4733,0,0,0
-0.3044,0.2278,0.9692,-3.0229,11.2137,-15.0305,0,0,0
-0.3083,0.2285,0.9541,-3.6947,11.4962,-11.9618,0,0,0
-0.3257,0.2253,0.9353,-3.3511,10.8931,-10.3893,0,0,0
-0.3113,0.2192,0.9568,2.0305,10.6794,-14.687,0,0,0
-0.3281,0.2666,0.9404,5.4351,11.1221,-18.8321,0,0,0
-0.3479,0.2649,0.9233,4.9771,9.145,-21.229,0,0,0
-0.3037,0.2961,0.9348,3.542,6.8092,-18.2061,0,0,0
-0.4199,0.2456,0.9041,-0.1908,7.8092,-22.0153,0,0,0
-0.312,0.2585,0.9448,-0.7099,6.3435,-21.3893,0,0,0
-0.3103,0.2798,0.9221,-2.0076,6.8397,-22.1527,0,0,0
-0.3611,0.2393,0.9124,-3.7557,4.8092,-23.2672,0,0,0
-0.3533,0.2104,0.9094,-2.8015,1.8702,-24.2748,0,0,0
-0.3484,0.2197,0.9209,2.9542,0.3282,-26.5344,0,0,0
-0.3662,0.2439,0.9102,6.687,-0.9237,-28.374,0,0,0
-0.3789,0.239,0.9006,9.145,-4.084,-29.5725,0,0,0
-0.3945,0.2388,0.8721,11.4809,-8.0,-30.2901,0,0,0
-0.4128,0.2432,0.8467,13.3053,-16.3511,-31.2366,0,0,0
-0.3945,0.2317,0.855,16.0229,-25.2672,-32.9237,0,0,0
-0.3613,0.2368,0.894,19.5725,-30.2901,-37.5725,0,0,0
-0.3416,0.2715,0.9202,19.8397,-31.3588,-39.2977,0,0,0
-0.3423,0.2588,0.9316,20.1527,-31.3893,-40.4656,0,0,0
-0.3438,0.2466,0.9248,20.8473,-32.1374,-39.4504,0,0,0
-0.3386,0.231,0.9282,20.2214,-34.7405,-37.2519,0,0,0
-0.2827,0.2332,0.9727,16.8473,-35.0,-33.6489,0,0,0
-0.2463,0.2378,1.0144,14.5649,-26.9847,-32.3588,0,0,0
-0.249,0.2278,1.0298,14.0611,-16.687,-31.3206,0,0,0
-0.2686,0.2344,1.0234,13.7176,-10.6718,-27.8626,0,0,0
-0.2783,0.2419,0.9919,15.374,-5.6183,-29.2901,0,0,0
0.3853,0.1799,1.2205,17.0458,7.9924,-37.6107,0,0,0
-0.3064,0.2288,0.9604,12.771,-12.4046,-34.0305,0,0,0
-0.2502,0.2146,0.9736,11.1221,-10.1374,-34.9924,0,0,0
-0.2849,0.1816,0.979,12.4427,-7.8397,-31.1679,0,0,0
-0.281,0.2358,0.9944,10.0534,-3.9237,-26.0611,0,0,0
-0.2798,0.2495,0.9988,6.6412,0.8702,-24.9695,0,0,0
-0.2888,0.2737,0.9905,3.9542,5.5802,-26.0534,0,0,0
-0.3052,0.2466,0.9678,3.6718,8.2901,-27.0458,0,0,0
-0.322,0.2236,0.9434,5.4809,7.7405,-26.6947,0,0,0
-0.3308,0.2161,0.9255,7.9389,6.3817,-25.9313,0,0,0
-0.3298,0.2444,0.9248,10.1985,5.2366,-26.6947,0,0,0
-0.3479,0.2761,0.9199,9.8092,3.7481,-28.6031,0,0,0
-0.3318,0.3132,0.9368,5.5954,2.7023,-31.3053,0,0,0
-0.3323,0.2988,0.949,3.3282,4.7252,-35.229,0,0,0
-0.3586,0.2769,0.9409,2.1603,4.9695,-35.9084,0,0,0
-0.3394,0.2314,0.9321,1.5954,5.2672,-33.5267,0,0,0
-0.3379,0.1897,0.9209,3.7786,5.3969,-30.3206,0,0,0
-0.3484,0.1938,0.9089,6.0382,4.5267,-27.2443,0,0,0
-0.3477,0.2053,0.907,7.6107,3.5649,-23.4427,0,0,0
-0.3313,0.231,0.925,6.8855,3.9618,-20.8092,0,0,0
-0.3147,0.2661,0.947,5.7405,5.0305,-21.7023,0,0,0
-0.312,0.2935,0.9543,3.4656,8.2977,-25.0076,0,0,0
-0.3779,0.4619,0.9102,-7.9847,13.8244,-30.7328,0,0,0
-0.3904,0.1406,0.9573,2.3435,18.0687,-35.4351,0,0,0
-0.373,0.166,0.9209,9.5038,17.0916,-27.9237,0,0,0
-0.3892,0.1909,0.9014,10.0153,17.626,-26.374,0,0,0
-0.3628,0.2612,0.9167,10.4275,15.3893,-27.7863,0,0,0
-0.3469,0.2983,0.9099,4.7023,15.8015,-30.2824,0,0,0
-0.542,0.092,0.9072,-2.9695,13.5878,-29.3359,0,0,0
-0.3779,0.2468,0.9209,-2.9695,17.5649,-33.2748,0,0,0
-0.3987,0.1643,0.8938,4.3817,18.1527,-31.6031,0,0,0
-0.3936,0.1716,0.9075,10.5115,18.145,-29.8702,0,0,0
-0.3442,0.2073,0.9285,11.6336,12.855,-18.8626,0,0,0
-0.3982,0.1445,0.9348,16.9237,15.0611,-16.3206,0,0,0
-0.3816,0.2373,0.9094,19.313,16.6107,-13.6489,0,0,0
-0.394,0.2322,0.9238,18.5725,19.5114,-13.5496,0,0,0
-0.3909,0.2515,0.936,18.3053,22.2901,-12.7939,0,0,0
-0.3923,0.238,0.9495,18.8397,28.4198,-12.6947,0,0,0
-0.4077,0.2114,0.9329,21.6107,30.9389,-11.0229,0,0,0
-0.4272,0.2256,0.8926,26.374,30.6336,-9.3359,0,0,0
-0.4397,0.2725,0.8638,21.0153,27.7252,-8.8779,0,0,0
-0.4375,0.272,0.877,13.7786,24.3969,-9.4733,0,0,0
-0.4475,0.2585,0.8738,10.7405,22.3817,-9.4962,0,0,0
-0.4768,0.2969,0.853,6.5649,17.1985,-10.1908,0,0,0
-0.458,0.3018,0.8691,1.8855,15.2214,-12.1527,0,0,0
-0.4741,0.2734,0.8958,-0.5725,13.2595,-13.855,0,0,0
-0.4641,0.249,0.9106,-1.1221,13.4656,-13.0687,0,0,0
-0.4695,0.2388,0.8816,-0.5725,11.0992,-11.9924,0,0,0
-0.4746,0.2446,0.8633,0.6031,7.3435,-12.4122,0,0,0
-0.4961,0.2258,0.8296,0.771,1.1985,-12.2214,0,0,0
-0.4778,0.1963,0.8242,1.0382,-3.6336,-8.916,0,0,0
-0.4683,0.2158,0.855,2.0305,-5.542,-6.4046,0,0,0
-0.4355,0.3232,0.8611,4.374,-8.4427,-13.1756,0,0,0
-0.4846,0.2827,0.8635,3.313,-6.3282,-6.6336,0,0,0
-0.4241,0.259,0.8962,-1.0305,-2.771,-6.0153,0,0,0
-0.4456,0.2214,0.9177,-0.3664,1.2061,-3.7481,0,0,0
-0.4497,0.2271,0.8857,0.4656,1.7863,-1.8092,0,0,0
-0.4543,0.2212,0.8579,2.6412,1.6489,-1.3817,0,0,0
-0.4766,0.2439,0.8545,2.6718,-0.4046,-1.1069,0,0,0
-0.4597,0.248,0.8711,1.8244,-3.1145,-0.9847,0,0,0
-0.4756,0.2822,0.8657,-0.3817,-4.4809,-2.0153,0,0,0
-0.4714,0.2808,0.8687,-4.7634,-6.6794,-2.916,0,0,0
-0.4585,0.2556,0.8762,-10.458,-7.2824,-1.8168,0,0,0
-0.4333,0.2163,0.8928,-14.5878,-5.542,1.7481,0,0,0
-0.4353,0.1804,0.8926,-16.9771,-3.4733,7.0763,0,0,0
-0.428,0.1052,0.8628,-20.916,-1.4733,16.687,0,0,0
-0.2363,0.0828,0.8484,-28.2977,1.2595,39.7634,0,0,0
-0.2969,0.1484,0.8301,-46.2672,11.9924,66.374,0,0,0
-0.5088,-0.0291,0.9023,-50.2519,2.771,91.6107,0,0,0
-0.3228,0.2146,0.9907,-27.8397,-13.6412,80.1374,0,0,0
-0.3638,0.52,0.9868,-33.5191,-8.6641,66.6565,0,0,0
-0.4128,0.3774,1.0012,-54.5725,-1.9389,61.1374,0,0,0
-0.4236,0.188,0.9619,-68.4657,8.313,74.0916,0,0,0
-0.4055,0.0662,0.9207,-80.458,15.6718,98.9084,0,0,0
-0.4031,0.095,0.8713,-95.3664,18.7023,127.0916,0,0,0
-0.3706,-0.0017,0.8193,-103.6641,13.6641,155.7939,0,0,0
-0.3655,0.0115,0.7878,-106.8702,9.855,177.4427,0,0,0
-0.251,-0.0713,0.833,-97.9847,9.5191,191.2443,0,0,0
-0.3665,0.0676,1.0,-69.4733,10.0305,186.8855,0,0,0
-0.4385,0.4453,0.9573,-51.1069,13.4656,169.8397,0,0,0
-0.3242,0.4771,0.9575,-57.374,11.2519,147.4198,0,0,0
-0.3953,0.4529,0.9043,-74.0153,10.9847,134.771,0,0,0
-0.3669,0.3352,0.8635,-85.3817,6.2061,129.3511,0,0,0
-0.6104,0.2419,0.8359,-89.0992,-5.9466,120.4046,0,0,0
-0.3525,0.2776,0.8845,-93.2366,-14.0916,114.9618,0,0,0
-0.3455,0.313,0.9468,-102.6336,-12.6641,111.8092,0,0,0
-0.3472,0.2224,0.9531,-108.9313,-5.5344,104.229,0,0,0
-0.3435,0.1804,0.9641,-103.6794,-3.6031,96.9466,0,0,0
-0.3655,0.1072,0.9683,-85.4351,-3.8626,85.4428,0,0,0
-0.3821,0.1226,1.0005,-67.0305,-5.3206,74.2214,0,0,0
-0.3667,0.2112,1.042,-54.8015,-4.5878,70.0916,0,0,0
-0.332,0.145,1.0544,-45.0305,-1.0611,61.2901,0,0,0
-0.3052,0.1877,1.043,-34.7023,5.7023,52.771,0,0,0
-0.3284,0.2002,1.0083,-25.5802,13.3664,44.6565,0,0,0
-0.3843,0.2339,0.9661,-21.0687,12.855,35.4046,0,0,0
-0.3899,0.2397,0.9409,-21.2443,10.3969,27.6794,0,0,0
-0.3835,0.2085,0.9429,-20.7328,7.3588,21.2366,0,0,0
-0.366,0.2178,0.9697,-19.5649,7.2672,18.0305,0,0,0
-0.3701,0.209,0.9814,-20.2366,7.8015,15.9466,0,0,0
-0.3767,0.2007,0.9766,-19.8702,7.3817,13.8702,0,0,0
-0.3833,0.1758,0.9656,-15.9771,5.2977,10.6947,0,0,0
-0.3721,0.1675,0.9692,-10.374,3.6107,5.5954,0,0,0
-0.3787,0.1582,0.96,-4.7939,1.4198,2.6947,0,0,0
-0.3438,0.1453,1.0015,-2.1679,1.5115,3.687,0,0,0
-0.3186,0.146,1.0151,0.4885,5.9466,4.8244,0,0,0
-0.3267,0.1707,1.0081,2.3893,10.5878,4.9389,0,0,0
-0.1921,0.2368,1.0273,3.7939,8.374,4.1374,0,0,0
-0.4626,0.1948,0.969,3.229,19.6565,-3.9237,0,0,0
-0.4478,0.1821,0.9475,1.7405,16.3053,-8.1374,0,0,0
-0.2927,0.135,1.0063,6.8931,15.1527,-11.687,0,0,0
-0.3464,0.1628,0.9944,12.7176,22.1985,-13.9084,0,0,0
-0.3718,0.1838,0.9529,11.4275,23.2214,-14.9847,0,0,0
0.0237,0.2932,1.0752,4.458,38.7252,-20.0305,0,0,0
-0.374,0.1589,0.9377,4.0534,24.0992,-11.8702,0,0,0
-0.2922,0.1504,0.9575,-0.1832,28.6336,-8.5802,0,0,0
-0.3503,0.094,0.979,6.0382,31.9084,-11.8473,0,0,0
-0.313,0.1257,1.0198,14.4351,45.0534,-17.0382,0,0,0
-0.3076,0.218,0.9827,12.3817,54.0,-18.0229,0,0,0
-0.4709,0.1621,0.9197,4.1756,50.9618,-14.313,0,0,0
-0.4219,0.1892,0.8889,-3.7634,45.3435,-10.0,0,0,0
-0.4553,0.146,0.8855,-5.8244,44.3282,-8.4504,0,0,0
-0.4282,0.1663,0.8694,-4.3282,43.1985,-10.0763,0,0,0
-0.4717,0.1843,0.8435,-4.084,36.6947,-10.8473,0,0,0
-0.4841,0.1108,0.8408,-3.9237,32.0992,-10.0,0,0,0
-0.4985,0.116,0.8301,-2.4885,25.1756,-7.3664,0,0,0
-0.4885,0.1426,0.832,-2.5344,20.229,-5.0076,0,0,0
-0.4995,0.147,0.8242,-5.6489,14.6489,-2.9771,0,0,0
-0.5142,0.1331,0.8113,-5.374,8.4656,-2.1908,0,0,0
-0.4944,0.127,0.8052,-3.7557,2.916,-2.5191,0,0,0
-0.501,0.1128,0.8357,0.0763,-1.8397,-3.4427,0,0,0
-0.4485,0.1279,0.8772,1.9084,-2.687,-1.5573,0,0,0
-0.4463,0.1211,0.9036,4.1221,0.7176,-0.4885,0,0,0
-0.4663,0.1467,0.9001,5.8397,2.916,-0.6183,0,0,0
-0.4841,0.1614,0.8965,4.8015,2.8092,-2.3206,0,0,0
-0.4727,0.1667,0.8926,3.3817,3.0153,-3.4046,0,0,0
-0.4949,0.1697,0.8877,1.1908,1.4198,-6.0,0,0,0
-0.4971,0.1541,0.8809,-1.1069,-1.2977,-6.7634,0,0,0
-0.4863,0.1353,0.8879,-2.4046,-2.3282,-5.626,0,0,0
-0.4744,0.1042,0.8877,-1.7328,-2.9008,-3.5954,0,0,0
-0.4646,0.1094,0.8955,0.4122,-1.542,-2.2824,0,0,0
-0.4905,0.1306,0.8777,1.7634,-2.3206,-2.2443,0,0,0
-0.5051,0.1326,0.8755,2.1679,-5.6794,-3.229,0,0,0
-0.4985,0.1323,0.8774,2.9313,-8.8015,-3.5496,0,0,0
-0.4768,0.1072,0.8992,11.0382,-10.6412,-7.7023,0,0,0
-0.4731,0.1802,0.8762,19.2137,-9.8702,-14.7634,0,0,0
-0.5039,0.1953,0.863,21.2214,-12.9389,-20.5725,0,0,0
-0.5349,0.1936,0.8518,22.4198,-19.5344,-27.0763,0,0,0
-0.4932,0.1941,0.873,27.2061,-24.9924,-35.3359,0,0,0
-0.5637,0.1829,0.8206,37.4885,-21.1298,-47.7252,0,0,0
-0.5605,0.2056,0.8162,37.3206,-30.3359,-50.2137,0,0,0
-0.5037,0.1565,0.7891,34.4885,-37.5878,-53.1298,0,0,0
-0.4304,0.1917,0.8569,32.5191,-49.5191,-46.7634,0,0,0
-0.4238,0.1299,0.9202,23.0534,-45.8397,-32.6412,0,0,0
-0.3745,0.095,0.9565,21.5267,-36.7176,-23.5191,0,0,0
-0.312,0.1277,0.9858,26.374,-25.855,-20.0305,0,0,0
-0.3835,0.1982,0.9431,30.1603,-16.374,-22.5954,0,0,0
-0.4551,0.2319,0.9053,27.1298,-17.145,-27.8092,0,0,0
-0.4546,0.2524,0.8586,29.771,-33.8702,-31.6641,0,0,0
-0.532,0.1687,0.8103,31.8473,-44.6641,-31.2672,0,0,0
-0.4377,0.2036,0.8433,26.7939,-49.1985,-26.8779,0,0,0
-0.3462,0.1846,0.9099,18.313,-45.3435,-23.4275,0,0,0
-0.2813,0.2004,0.9714,9.6107,-39.4122,-17.2519,0,0,0
-0.2705,0.1719,1.0002,4.3664,-26.9924,-13.2977,0,0,0
-0.3501,0.1699,0.9858,4.084,-18.9847,-13.855,0,0,0
-0.4565,0.1648,0.9448,5.9618,-18.9771,-17.0229,0,0,0
-0.429,0.1956,0.9128,7.7099,-24.4046,-20.1908,0,0,0
-0.4475,0.1946,0.8704,8.4504,-32.0076,-20.5573,0,0,0
-0.4868,0.1626,0.8357,9.7252,-44.9237,-18.458,0,0,0
-0.4685,0.1797,0.8276,8.9771,-58.2443,-15.6107,0,0,0
-0.4033,0.1746,0.8347,7.3588,-69.0229,-14.2214,0,0,0
-0.3169,0.179,0.8845,5.6031,-70.9847,-14.7176,0,0,0
-0.3115,0.1907,0.9312,1.2519,-69.1756,-16.0534,0,0,0
-0.2866,0.1919,0.9824,-4.7405,-67.2443,-14.8321,0,0,0
-0.303,0.1628,0.9934,-7.6183,-63.1832,-12.9084,0,0,0
-0.2732,0.1729,1.0281,-7.9542,-60.084,-11.9313,0,0,0
-0.2354,0.1904,1.0369,-10.0992,-50.8397,-13.7405,0,0,0
-0.2561,0.1995,1.0425,-12.1145,-46.5649,-14.2977,0,0,0
-0.2524,0.1763,1.0176,-13.7405,-42.2824,-14.0763,0,0,0
-0.2522,0.1602,1.0049,-13.374,-39.7176,-14.5038,0,0,0
-0.2444,0.1711,1.0034,-12.0534,-38.1679,-15.5496,0,0,0
-0.2288,0.1602,1.009,-12.1756,-35.8702,-15.8397,0,0,0
-0.2214,0.1531,1.0295,-14.6107,-30.9237,-15.0916,0,0,0
-0.2229,0.1294,1.0315,-14.9847,-27.3893,-13.0458,0,0,0
-0.2002,0.1006,1.0369,-10.5954,-22.1985,-12.3282,0,0,0
-0.1934,0.1086,1.0378,-3.6718,-15.9542,-11.8244,0,0,0
-0.1829,0.0964,1.0454,1.4122,-9.6031,-10.1527,0,0,0
-0.1912,0.1028,1.0278,4.6183,-3.4962,-6.6412,0,0,0
-0.1973,0.1206,1.0149,6.8397,1.0305,-4.2366,0,0,0
-0.2158,0.1362,1.0056,8.1756,5.8931,-2.7557,0,0,0
-0.24,0.1543,1.0017,8.1756,5.8168,-2.5038,0,0,0
-0.2378,0.1714,1.001,8.3511,6.3435,-2.7176,0,0,0
-0.2395,0.1914,0.9944,5.2595,6.9771,-2.3359,0,0,0
-0.2483,0.1875,0.9834,1.7405,6.0687,-1.6794,0,0,0
-0.2598,0.1851,0.9736,-1.0076,4.7863,-0.9771,0,0,0
-0.2607,0.1802,0.95,-3.771,3.0076,-0.2519,0,0,0
-0.2446,0.1819,0.9575,-7.7481,1.6336,1.3053,0,0,0
-0.1948,0.1855,1.0208,-11.8855,4.5878,3.6718,0,0,0
-0.1924,0.1733,1.041,-14.7405,12.6718,4.229,0,0,0
-0.1997,0.1729,1.0439,-15.9084,19.5802,5.8397,0,0,0
-0.2444,0.1626,1.0103,-13.313,24.4504,4.5725,0,0,0
-0.2976,0.1592,0.9561,-7.4656,22.0611,1.229,0,0,0
-0.3267,0.1624,0.9387,-2.3588,16.0534,-1.5267,0,0,0
-0.2771,0.187,0.9419,-1.4733,9.8321,-2.4733,0,0,0
-0.3005,0.1604,0.9348,-2.2748,5.2214,-1.458,0,0,0
-0.291,0.1624,0.9348,-2.916,1.3282,-1.8092,0,0,0
-0.2693,0.1643,0.9507,-4.4046,-1.771,-1.6412,0,0,0
-0.2634,0.1501,0.9617,-3.9771,-2.6718,-1.626,0,0,0
-0.2695,0.1592,0.981,-2.3511,-2.7863,-1.0153,0,0,0
-0.2517,0.1724,0.9944,-2.2824,-1.8244,-1.4962,0,0,0
-0.2512,0.1633,0.9937,-2.5802,0.2443,-2.2137,0,0,0
-0.2671,0.147,0.9893,0.0992,0.9084,-1.7634,0,0,0
-0.2715,0.1443,0.9766,2.6565,0.0611,-1.1985,0,0,0
-0.2771,0.1577,0.9614,3.0,-1.542,-0.5573,0,0,0
-0.2773,0.1633,0.9534,1.771,-4.2672,-0.2366,0,0,0
-0.2686,0.1631,0.9702,1.2977,-6.0076,-1.1985,0,0,0
-0.2515,0.1614,0.9905,2.1756,-4.8779,-2.6336,0,0,0
-0.2527,0.1711,1.0027,3.3511,-2.0076,-3.687,0,0,0
-0.2534,0.176,1.0068,1.9771,-0.1756,-3.5802,0,0,0
-0.2585,0.176,0.9949,-0.2977,1.4656,-2.9389,0,0,0
-0.2668,0.1721,0.9836,-1.7863,1.5038,-3.313,0,0,0
-0.2737,0.1641,0.969,-2.771,0.1985,-3.5878,0,0,0
-0.2654,0.1536,0.9678,-3.7557,-0.7252,-2.9847,0,0,0
-0.2727,0.1382,0.9526,-2.8626,-2.4885,-3.0687,0,0,0
-0.2561,0.1362,0.9597,-2.9695,-3.9008,-1.7557,0,0,0
-0.2517,0.1279,0.9585,-2.6412,-3.9618,-0.1221,0,0,0
-0.2603,0.1206,0.9507,-1.4656,-5.0305,1.0916,0,0,0
-0.2532,0.1204,0.9719,2.4962,-5.7099,1.0916,0,0,0
-0.238,0.1589,0.9988,4.6794,-2.9847,0.6794,0,0,0
-0.2483,0.1814,0.9949,3.4198,0.0687,0.0916,0,0,0
-0.2659,0.1873,0.988,0.8702,0.084,-1.8855,0,0,0
-0.2705,0.1772,0.9861,-0.626,-0.3511,-3.5267,0,0,0
-0.2722,0.1658,0.9814,-2.229,-1.4198,-3.8321,0,0,0
-0.2722,0.1514,0.979,-2.6183,-2.458,-3.0153,0,0,0
-0.2666,0.1353,0.9746,-1.6718,-3.7557,-1.9771,0,0,0
-0.2498,0.1504,0.9934,-1.9542,-3.4351,-1.5344,0,0,0
-0.2493,0.1475,0.9927,-2.3969,-2.2748,-0.8779,0,0,0
-0.2534,0.1455,0.9807,-2.6031,-2.6412,-0.2595,0,0,0
-0.2517,0.1348,0.9983,-0.9084,-2.3282,-0.0992,0,0,0
-0.2498,0.1494,0.9944,0.4962,-0.5191,-0.1145,0,0,0
-0.2593,0.157,0.9871,0.2824,0.084,0.2595,0,0,0
-0.2693,0.1555,0.9668,-0.0687,-0.9313,0.855,0,0,0
-0.2751,0.1614,0.9719,-0.6718,-3.1603,0.8321,0,0,0
-0.2534,0.1611,0.9824,-0.8321,-3.8244,1.0305,0,0,0
-0.2397,0.1406,0.9951,0.7557,-2.2824,0.8779,0,0,0
-0.2544,0.1438,0.9871,2.084,-0.7863,2.2595,0,0,0
-0.27,0.1597,0.9678,2.6031,-1.3282,2.6412,0,0,0
-0.2764,0.1743,0.9739,1.7481,-3.0687,3.0534,0,0,0
-0.2622,0.1787,0.9875,0.6641,-4.5954,2.3511,0,0,0
-0.2546,0.1855,1.0024,0.3435,-3.6641,0.229,0,0,0
-0.2512,0.2012,0.9971,-1.542,-2.2672,-0.6947,0,0,0
-0.2595,0.1912,0.9858,-4.2137,-2.0153,-1.1221,0,0,0
-0.2568,0.1746,0.9807,-5.7176,-2.4733,-1.4504,0,0,0
-0.2446,0.1519,0.9778,-3.0305,-1.916,-2.2137,0,0,0
-0.2334,0.1643,0.9919,-2.2595,-0.229,-2.4427,0,0,0
-0.2427,0.1726,0.9858,-2.2595,1.7634,-3.1069,0,0,0
-0.2539,0.1638,0.9707,-2.8779,1.2366,-3.2977,0,0,0
-0.2668,0.1523,0.9604,-3.4046,-0.5115,-2.145,0,0,0
-0.2576,0.1479,0.9661,-3.7863,-2.7328,-0.9618,0,0,0
-0.2466,0.1377,0.9719,-2.7252,-3.5649,-0.4656,0,0,0
-0.2405,0.145,0.9756,-1.5267,-3.374,0.9008,0,0,0
-0.2258,0.1558,0.9883,-2.3053,-2.1069,1.1756,0,0,0
-0.2329,0.1633,0.9956,-3.1985,0.0611,0.7023,0,0,0
-0.2471,0.146,0.9858,-1.8779,0.4504,0.6718,0,0,0
-0.2534,0.1506,0.968,-1.1756,-0.4198,1.1679,0,0,0
-0.2544,0.1516,0.9656,-0.7405,-1.4427,2.0382,0,0,0
-0.2495,0.1506,0.9651,-0.1603,-2.0458,2.3435,0,0,0
-0.2441,0.1521,0.9724,0.458,-2.542,2.0076,0,0,0
-0.239,0.1565,0.9678,0.771,-2.5649,2.4122,0,0,0
-0.2354,0.1409,0.9673,1.6031,-2.458,2.229,0,0,0
-0.2432,0.1416,0.9697,2.8702,-1.5038,1.9618,0,0,0
-0.2507,0.1477,0.968,2.3893,-2.2595,2.6183,0,0,0
-0.238,0.1367,0.9797,2.2137,-2.8015,3.4122,0,0,0
-0.2393,0.1316,0.9839,3.5802,-2.4656,3.6565,0,0,0
-0.2483,0.137,0.9775,4.4046,-2.5115,4.4809,0,0,0
-0.2588,0.1443,0.9734,3.313,-3.8168,5.2366,0,0,0
-0.2634,0.1643,0.9719,1.6489,-5.3206,5.5649,0,0,0
-0.2593,0.1562,0.9807,0.8168,-5.3053,4.4809,0,0,0
-0.2607,0.1658,0.9756,1.2137,-4.5878,2.7405,0,0,0
-0.2688,0.2263,0.9573,-0.7863,-12.2061,3.1145,0,0,0
-0.2825,0.178,0.9585,-2.3664,-7.8855,1.0763,0,0,0
-0.2537,0.1709,0.9565,-3.6794,-8.7939,1.0611,0,0,0
-0.2192,0.1497,0.9602,-4.8626,-8.0687,1.1679,0,0,0
-0.2449,0.1423,0.9431,-4.0534,-9.1298,2.0076,0,0,0
-0.2415,0.158,0.9478,-3.4504,-7.855,2.9924,0,0,0
-0.2463,0.1704,0.9619,-4.0534,-7.9084,3.6336,0,0,0
-0.2241,0.199,0.9785,-3.7481,-7.9008,3.8626,0,0,0
-0.2498,0.2273,0.9702,-3.6336,-7.7863,4.0076,0,0,0
-0.2551,0.2249,0.9678,-4.3282,-7.4427,3.4733,0,0,0
-0.2424,0.2168,0.9783,-5.3817,-4.0534,3.1374,0,0,0
-0.2336,0.208,0.96,-4.5725,-0.2595,2.6489,0,0,0
-0.2739,0.2131,0.9238,-4.6412,0.4656,3.542,0,0,0
-0.302,0.2275,0.8906,-4.3282,-0.8779,3.8931,0,0,0
-0.3242,0.2207,0.886,-3.8779,-4.2748,4.1221,0,0,0
-0.3269,0.2134,0.8784,-0.4046,-7.2977,4.2214,0,0,0
-0.3203,0.2078,0.9001,2.1908,-8.3969,4.0611,0,0,0
-0.3267,0.2075,0.9058,5.0687,-9.7939,3.8244,0,0,0
-0.3125,0.2183,0.9277,7.145,-10.9618,2.8321,0,0,0
-0.2881,0.2312,0.9353,6.0,-11.2137,1.3588,0,0,0
-0.2673,0.229,0.9395,3.5802,-11.5878,-0.8397,0,0,0
-0.2478,0.2083,0.9502,0.3893,-13.0153,-2.0534,0,0,0
-0.2246,0.1619,0.9773,0.6412,-13.8702,-3.4122,0,0,0
-0.1963,0.1421,0.9905,3.3435,-12.6641,-2.9389,0,0,0
-0.1753,0.1721,1.0024,4.9542,-12.8321,-1.4427,0,0,0
-0.1453,0.2041,1.0071,4.0611,-13.4351,-1.3282,0,0,0
-0.1257,0.2578,1.0142,0.4275,-13.7557,-3.1756,0,0,0
-0.0906,0.2744,1.0212,-7.0458,-13.8855,-5.8168,0,0,0
-0.0586,0.2725,1.0264,-15.0305,-9.6183,-9.1603,0,0,0
-0.0798,0.2468,1.0095,-20.4046,-4.9542,-11.8321,0,0,0
-0.0981,0.1836,0.9824,-22.1374,-2.2901,-11.1145,0,0,0
-0.1313,0.1443,0.9346,-18.2595,-1.6794,-6.9313,0,0,0
-0.1536,0.1184,0.9109,-10.0611,-2.8702,-1.6718,0,0,0
-0.1814,0.1543,0.925,-0.229,-5.2214,3.916,0,0,0
-0.1965,0.2075,0.9304,5.3282,-8.1756,6.8244,0,0,0
-0.1943,0.248,0.9426,4.5038,-9.2137,5.9771,0,0,0
-0.208,0.2288,0.9355,1.5725,-9.7863,4.3817,0,0,0
-0.2351,0.1875,0.938,-0.4427,-9.0992,4.3359,0,0,0
-0.3066,0.1775,0.9412,2.0916,-10.0611,6.6107,0,0,0
-0.3289,0.168,0.9795,9.0382,-13.1756,10.7252,0,0,0
-0.313,0.2068,1.0081,17.3053,-14.7252,11.4351,0,0,0
-0.2754,0.2324,1.0132,22.2214,-13.7405,8.2443,0,0,0
-0.3638,0.2507,1.0078,21.8092,-3.8931,2.8931,0,0,0
-0.3015,0.1951,0.9961,21.1374,-8.0153,5.5496,0,0,0
-0.3098,0.1724,1.0073,18.1527,-10.6412,6.8321,0,0,0
-0.3247,0.1782,1.0046,19.8397,-12.8855,8.4885,0,0,0
-0.259,0.199,1.0081,21.5344,-14.9924,8.4733,0,0,0
-0.2297,0.1621,1.0278,19.855,-15.0305,8.4046,0,0,0
-0.2109,0.1377,1.0461,16.1527,-12.0,7.7557,0,0,0
-0.1909,0.0798,1.0581,14.4046,-11.2977,9.1221,0,0,0
-0.0703,-0.0349,1.1348,22.0153,-3.7405,12.3817,0,0,0
-0.1372,-0.0662,1.1433,40.2824,2.8015,20.1374,0,0,0
-0.1792,0.0737,1.0903,49.1374,2.8092,29.9695,0,0,0
-0.1045,0.2046,1.1113,46.0,7.5802,29.6565,0,0,0
-0.1479,0.2729,1.0654,33.8168,10.0458,25.855,0,0,0
-0.1567,0.2893,1.054,19.5649,9.5649,23.0763,0,0,0
-0.1963,0.3088,1.043,8.8626,7.145,19.6412,0,0,0
-0.1992,0.2954,1.0337,0.0916,4.5802,15.6183,0,0,0
-0.1619,0.1992,1.0659,-1.1603,4.6489,14.1221,0,0,0
-0.0034,0.1416,1.0837,6.6718,4.5115,15.0153,0,0,0
-0.314,0.1479,0.9976,14.0992,14.0,18.0458,0,0,0
-0.1443,0.2334,0.9692,11.5038,13.1221,19.374,0,0,0
-0.2158,0.2151,0.9473,9.1298,9.1603,16.1679,0,0,0
-0.219,0.1775,0.9377,10.3435,8.3282,13.0076,0,0,0
-0.231,0.1746,0.9224,11.5496,5.1985,13.2366,0,0,0
-0.2187,0.1787,0.9417,8.7176,2.687,17.5114,0,0,0
-0.1843,0.1851,0.9543,4.0687,2.4046,21.1908,0,0,0
-0.1533,0.2227,0.9365,3.0076,11.4351,19.855,0,0,0
-0.0972,0.1467,1.0186,7.3282,15.7786,22.8931,0,0,0
-0.1843,0.1404,0.9768,12.2214,17.3511,23.5725,0,0,0
-0.2837,0.2925,0.9331,10.0687,13.2137,28.229,0,0,0
-0.2107,0.3196,0.9421,1.8015,6.2519,26.9771,0,0,0
-0.1838,0.3501,0.97,-4.5802,1.7634,24.084,0,0,0
-0.166,0.3918,0.9702,-12.145,-1.7863,20.3511,0,0,0
-0.1221,0.4009,0.9626,-23.9084,-4.8702,16.4962,0,0,0
-0.0676,0.3345,0.9541,-35.3969,-5.7481,13.9389,0,0,0
-0.0308,0.3635,0.8418,-37.0992,2.2977,10.6183,0,0,0
-0.105,0.2114,0.9307,-31.0992,0.8168,17.0076,0,0,0
-0.0854,0.2192,0.9412,-19.5267,1.6412,21.5191,0,0,0
-0.0625,0.2673,0.9604,-5.7176,0.6718,27.2137,0,0,0
-0.0962,0.3281,0.9451,2.2443,1.0687,26.1756,0,0,0
-0.1257,0.3804,0.9175,1.0305,-0.4656,24.0153,0,0,0
-0.1621,0.4055,0.9011,-6.8626,-5.1832,22.771,0,0,0
-0.1609,0.386,0.9011,-14.1069,-10.2366,21.9771,0,0,0
-0.0972,0.3835,0.9297,-13.0916,-7.5038,20.2214,0,0,0
-0.114,0.3174,0.9312,-6.6794,-7.5344,18.5802,0,0,0
-0.0925,0.2776,0.9675,1.0687,-10.1221,14.9924,0,0,0
-0.1345,0.2837,0.9604,8.4275,-12.3282,14.1221,0,0,0
-0.0972,0.2842,0.9712,12.2519,-15.542,14.2595,0,0,0
-0.1152,0.3384,0.9919,13.2366,-16.1069,14.2824,0,0,0
-0.1211,0.3228,0.968,8.7557,-15.9542,12.687,0,0,0
-0.1204,0.3618,0.979,3.229,-20.3359,9.5573,0,0,0
-0.0564,0.313,1.0332,2.7481,-20.8168,4.9695,0,0,0
-0.1165,0.3289,1.0664,6.3969,-16.1603,1.9924,0,0,0
-0.0554,0.3384,1.0503,8.3588,-14.8626,1.7481,0,0,0
-0.0857,0.3853,1.0383,3.771,-13.6336,-1.374,0,0,0
-0.0857,0.3806,1.0354,-1.8168,-15.0534,-3.7481,0,0,0
-0.02,0.3113,1.053,-4.1756,-13.7481,-8.2824,0,0,0
-0.0195,0.2712,1.0312,-2.9237,-9.8321,-9.458,0,0,0
-0.033,0.2207,1.0444,3.6336,-7.9313,-8.5267,0,0,0
-0.0654,0.3318,1.0417,9.7328,-6.0534,-6.6107,0,0,0
-0.0901,0.3889,1.0225,6.1908,-8.5496,-8.9542,0,0,0
-0.0825,0.4453,1.0095,-4.9466,-9.3817,-15.5115,0,0,0
-0.075,0.3582,0.998,-16.2366,-8.8092,-18.4122,0,0,0
-0.0764,0.2444,0.9983,-17.0382,-7.8168,-16.2595,0,0,0
-0.0693,0.2061,0.9995,-9.0534,-5.8397,-10.9466,0,0,0
-0.0789,0.259,1.0022,0.5649,-1.8855,-9.6183,0,0,0
-0.1023,0.3296,0.9983,5.6412,-0.9618,-10.4046,0,0,0
-0.073,0.3376,0.9814,2.5038,0.2672,-13.7252,0,0,0
-0.064,0.2971,0.9524,-1.626,1.3282,-17.3206,0,0,0
-0.0803,0.2021,0.9407,-1.8931,-1.7481,-16.7405,0,0,0
-0.1169,0.1877,0.9417,0.2595,-6.1832,-11.4046,0,0,0
-0.4109,0.1902,0.9277,2.3893,-10.3053,-5.4656,0,0,0
-0.0132,0.3005,1.0012,6.0382,-14.1832,-4.5725,0,0,0
-0.0447,0.3433,1.0427,8.916,-19.3969,-6.8397,0,0,0
0.0496,0.405,1.0635,9.7786,-15.3359,-13.5115,0,0,0
0.0208,0.4585,1.0552,5.855,-12.0229,-18.145,0,0,0
0.0498,0.4563,1.0295,-4.2366,-5.2977,-21.3435,0,0,0
-0.0134,0.3701,0.9934,-9.9847,1.6183,-27.6336,0,0,0
-0.1321,0.325,0.9333,-11.9924,1.1756,-30.8015,0,0,0
-0.1887,0.2546,0.9185,-6.3206,-5.7099,-32.145,0,0,0
-0.175,0.2251,0.9492,1.8931,-17.9008,-30.145,0,0,0
-0.1133,0.2151,1.0068,5.2214,-28.5191,-30.5267,0,0,0
-0.063,0.2336,1.0454,5.5496,-29.9466,-32.9313,0,0,0
-0.0952,0.2437,1.0571,2.2977,-28.6412,-34.5573,0,0,0
-0.1831,0.2959,1.0479,-4.8626,-27.1756,-35.5344,0,0,0
-0.0681,0.2727,1.1006,-10.6794,-25.5878,-39.5725,0,0,0
-0.0659,0.1836,1.1155,-8.6336,-22.6489,-42.6336,0,0,0
-0.0244,0.1265,1.1069,3.9389,-15.7863,-42.1221,0,0,0
-0.0308,0.1399,1.0864,11.229,-12.3588,-37.542,0,0,0
-0.0593,0.2197,1.0198,7.6336,-9.7099,-33.9237,0,0,0
-0.1375,0.2847,0.9771,-2.2595,-14.1908,-29.1069,0,0,0
-0.1553,0.3286,0.9666,-12.4809,-22.5725,-26.1374,0,0,0
-0.146,0.3625,0.958,-19.3206,-30.0534,-31.4656,0,0,0
-0.2368,0.0576,0.9937,-24.3511,-46.8473,-33.1145,0,0,0
-0.094,0.1924,1.0715,-5.9924,-32.8397,-48.6489,0,0,0
0.0085,0.054,1.1147,22.8168,-22.8931,-43.5878,0,0,0
-0.0037,0.0938,1.1096,38.084,-16.0687,-31.2519,0,0,0
-0.0623,0.2498,1.063,33.458,-12.2443,-25.1985,0,0,0
-0.0405,0.2712,1.0425,17.0229,-9.6107,-22.1298,0,0,0
-0.0093,0.2939,1.0046,5.4046,-8.9389,-21.6412,0,0,0
-0.0759,0.2017,0.9783,5.6107,-15.8015,-21.5344,0,0,0
-0.0483,0.2185,0.9836,14.5038,-22.6336,-19.4962,0,0,0
-0.0427,0.2947,1.0007,20.6031,-29.7939,-17.0687,0,0,0
-0.0537,0.3289,1.0481,19.8855,-35.7786,-16.1374,0,0,0
0.0334,0.3513,1.0969,16.4427,-37.1374,-18.8931,0,0,0
0.0645,0.2979,1.1296,19.6412,-31.1832,-21.771,0,0,0
0.1338,0.3513,1.1331,21.6489,-23.2137,-23.7405,0,0,0
0.0867,0.3679,1.0977,18.1908,-18.7939,-25.7176,0,0,0
0.0803,0.3892,1.0503,12.0763,-17.2824,-24.3893,0,0,0
0.062,0.3623,1.0291,9.5038,-17.8473,-22.1603,0,0,0
0.0483,0.3315,1.0044,14.1221,-17.9466,-23.8473,0,0,0
0.0574,0.3167,0.9888,20.1679,-19.6031,-24.3664,0,0,0
0.0618,0.3381,0.9785,23.9084,-17.4351,-24.8092,0,0,0
0.0144,0.3284,0.9614,24.0534,-15.9771,-22.2595,0,0,0
-0.0068,0.3708,0.957,23.9313,-14.2519,-18.9847,0,0,0
-0.0298,0.4094,0.9517,22.9389,-9.7176,-16.916,0,0,0
-0.0559,0.4263,0.9373,23.2672,-6.2443,-18.7786,0,0,0
-0.1067,0.4575,0.9011,22.6947,-7.0611,-21.374,0,0,0
-0.0967,0.449,0.8955,20.1603,-8.5878,-25.5038,0,0,0
-0.1428,0.4021,0.8745,20.2595,-10.4656,-27.6565,0,0,0
-0.1389,0.3696,0.863,18.9924,-13.5115,-27.0534,0,0,0
-0.1238,0.3608,0.8325,16.5954,-13.1756,-24.9924,0,0,0
-0.1348,0.323,0.8159,17.2824,-13.8015,-22.1069,0,0,0
-0.1467,0.2988,0.8022,18.6794,-15.4275,-19.5649,0,0,0
-0.1528,0.2959,0.802,20.4351,-17.2824,-15.5038,0,0,0
-0.1538,0.3042,0.8071,21.9695,-18.6107,-12.4809,0,0,0
-0.1624,0.3198,0.8169,25.542,-18.9466,-10.0992,0,0,0
-0.1467,0.3333,0.8521,28.1908,-19.229,-8.9542,0,0,0
-0.1279,0.3616,0.8826,28.1603,-18.0534,-9.2137,0,0,0
-0.085,0.4202,0.8936,23.084,-15.7099,-11.5878,0,0,0
-0.0562,0.4514,0.8838,13.0382,-15.145,-15.1069,0,0,0
-0.0554,0.4299,0.8701,2.8626,-16.5573,-17.7252,0,0,0
-0.0464,0.3418,0.8677,-2.5115,-21.0382,-17.3359,0,0,0
-0.0164,0.2419,0.9185,2.6718,-23.771,-13.3053,0,0,0
-0.009,0.2444,0.9666,12.5573,-21.9389,-7.0992,0,0,0
0.0044,0.3003,0.9849,16.687,-16.6565,-0.542,0,0,0
0.0149,0.335,0.998,16.313,-8.3435,1.4809,0,0,0
-0.0188,0.3767,0.9687,15.5878,-0.8473,2.7405,0,0,0
-0.0654,0.4124,0.9446,12.9389,1.4122,5.0458,0,0,0
-0.0933,0.4172,0.9329,9.2061,0.2443,6.3435,0,0,0
-0.0999,0.4268,0.9443,6.6718,-2.0763,8.5573,0,0,0
-0.0671,0.4167,0.9863,5.1298,-1.0992,10.4198,0,0,0
-0.0481,0.4333,1.021,1.7176,3.2137,10.7634,0,0,0
-0.0288,0.4375,1.0164,-4.4885,8.5038,11.374,0,0,0
-0.0283,0.4348,1.0061,-13.0611,13.6794,12.5344,0,0,0
-0.0166,0.4065,0.9968,-21.7786,18.0916,15.4427,0,0,0
-0.0029,0.3689,0.9834,-27.3969,22.8779,21.5496,0,0,0
0.0,0.3369,0.9534,-30.3511,26.6412,29.4351,0,0,0
0.0024,0.3472,0.9131,-34.542,29.4275,41.1679,0,0,0
-0.0156,0.2737,0.8879,-38.0153,27.3359,56.1069,0,0,0
0.0269,0.2612,0.9224,-39.0992,24.5267,66.1603,0,0,0
0.0679,0.2971,0.9729,-39.7176,28.2901,71.1832,0,0,0
-0.0388,0.1501,0.8821,-44.2901,51.8931,73.542,0,0,0
0.0342,0.3545,0.936,-44.1374,42.084,70.9847,0,0,0
0.0017,0.3733,0.9351,-34.0611,39.771,60.1832,0,0,0
-0.0522,0.3862,0.8894,-24.0763,36.145,47.4809,0,0,0
-0.0449,0.4192,0.8784,-22.1679,27.7328,40.9618,0,0,0
-0.0464,0.3953,0.8982,-24.4962,21.8244,41.542,0,0,0
-0.0315,0.3682,0.9436,-23.8855,17.1221,43.0763,0,0,0
-0.0005,0.3992,0.9695,-28.0382,17.1527,47.4962,0,0,0
0.0837,0.4377,0.9854,-36.1221,19.7557,53.0305,0,0,0
-0.0549,0.3809,1.0012,-39.1145,23.9542,44.3588,0,0,0
0.0332,0.4382,1.0056,-33.8855,19.4733,32.0153,0,0,0
-0.0308,0.3965,0.9536,-31.7099,16.771,23.4809,0,0,0
-0.0164,0.3726,0.9402,-31.6412,14.8473,21.9924,0,0,0
-0.0386,0.2749,0.9656,-25.3511,10.229,24.6489,0,0,0
-0.0437,0.2539,0.9795,-14.0687,7.7863,27.7863,0,0,0
-0.043,0.3123,0.981,-8.9847,7.687,29.8321,0,0,0
-0.0576,0.3425,0.9727,-11.4122,7.1145,30.0611,0,0,0
-0.0557,0.3518,0.9636,-17.4198,6.3969,29.626,0,0,0
-0.0471,0.3347,0.9729,-22.7863,5.8702,28.7328,0,0,0
-0.0466,0.3201,0.9712,-23.1679,5.771,25.771,0,0,0
-0.0562,0.3164,0.9736,-20.542,4.9695,24.5344,0,0,0
-0.0569,0.3254,0.979,-16.0153,2.7939,22.9924,0,0,0
-0.0586,0.3223,0.9646,-9.5954,0.7481,21.0229,0,0,0
-0.0496,0.3306,0.9568,-2.687,-2.4504,17.3969,0,0,0
-0.0369,0.3552,0.9568,3.9542,-5.4656,11.9771,0,0,0
-0.0259,0.3916,0.9514,8.0687,-9.6412,6.9771,0,0,0
0.0076,0.4265,0.98,8.2672,-11.2748,3.4198,0,0,0
0.0261,0.4304,1.009,6.7939,-10.0305,0.2443,0,0,0
0.0229,0.4465,1.0256,4.2443,-7.2137,-2.5954,0,0,0
-0.083,0.3611,0.998,1.5802,0.542,-9.4962,0,0,0
0.0596,0.3857,0.9934,1.9542,-6.3664,-10.8931,0,0,0
0.0239,0.3948,0.9727,-0.4046,-11.0076,-11.7328,0,0,0
-0.0166,0.3555,0.9944,-5.8931,-8.5725,-9.542,0,0,0
0.0488,0.3452,1.0588,-16.313,-4.4885,-3.8779,0,0,0
0.0125,0.2979,1.0759,-21.145,4.0076,-2.2366,0,0,0
0.0322,0.2715,1.1052,-22.374,12.1374,0.4733,0,0,0
0.0203,0.271,1.0977,-22.2748,21.7557,1.855,0,0,0
-0.0146,0.2266,1.0903,-19.0382,28.9695,2.8397,0,0,0
-0.0486,0.2454,1.0417,-13.2977,32.2061,3.9084,0,0,0
-0.0896,0.292,1.0146,-11.0611,32.3664,4.6641,0,0,0
-0.1418,0.3311,0.9785,-13.3588,28.4351,3.3969,0,0,0
-0.1509,0.3188,0.9829,-14.6031,22.5802,-0.5878,0,0,0
-0.1262,0.2871,1.0134,-12.9924,19.374,-6.3435,0,0,0
-0.106,0.2607,1.0149,-9.0687,17.6107,-8.7786,0,0,0
-0.0996,0.2363,0.9985,-6.5573,16.626,-7.4351,0,0,0
-0.1111,0.2622,0.9673,-0.3969,10.1985,-7.8473,0,0,0
-0.1169,0.2886,0.9648,-1.7863,4.1145,-9.7328,0,0,0
-0.1113,0.2825,0.9749,-1.084,-3.1908,-12.8626,0,0,0
-0.0969,0.26,0.9895,2.3893,-9.5954,-14.2443,0,0,0
-0.0803,0.2561,1.0093,7.7786,-14.3359,-15.0992,0,0,0
-0.064,0.2732,1.0234,13.5649,-18.2977,-16.5725,0,0,0
-0.0371,0.2815,1.0295,17.771,-20.4046,-19.5725,0,0,0
-0.042,0.3071,1.0317,16.771,-21.374,-21.9389,0,0,0
-0.0334,0.3481,1.0212,9.8168,-21.9313,-22.6489,0,0,0
-0.0239,0.251,0.9949,3.5878,-18.5191,-21.1145,0,0,0
-0.0366,0.2634,0.9966,0.2748,-22.9771,-17.9084,0,0,0
-0.0027,0.2415,0.998,1.8244,-21.0458,-16.9237,0,0,0
-0.0024,0.2278,0.9753,4.771,-18.5954,-14.0611,0,0,0
-0.0249,0.2461,0.9534,6.6641,-14.916,-10.8397,0,0,0
-0.0325,0.2571,0.9348,4.0,-12.6107,-7.1527,0,0,0
-0.0632,0.2319,0.9309,2.0382,-12.0305,-5.2748,0,0,0
0.0181,0.2209,0.9695,5.7634,-11.4122,-5.4885,0,0,0
0.0132,0.2622,0.9636,6.8397,-7.8626,-6.3588,0,0,0
-0.0132,0.2871,0.9517,3.1679,-4.8015,-5.8779,0,0,0
-0.0161,0.2988,0.9326,-4.3053,-3.2137,-3.4046,0,0,0
-0.0369,0.2822,0.9097,-12.8626,-2.9695,0.1145,0,0,0
-0.0356,0.228,0.9072,-17.2443,-6.8321,3.7481,0,0,0
0.0559,0.2002,0.9309,-14.0305,-9.9618,5.626,0,0,0
0.0649,0.2253,0.9463,-11.8244,-7.9542,6.9008,0,0,0
0.0454,0.2432,0.926,-11.626,-7.3053,5.2519,0,0,0
0.0239,0.1992,0.926,-14.0229,-8.1298,5.6947,0,0,0
0.0054,0.2332,0.9075,-17.8626,-12.1298,7.1832,0,0,0
0.0037,0.219,0.9236,-19.7939,-17.6107,5.9466,0,0,0
0.0203,0.2021,0.9448,-20.4885,-20.0,5.8092,0,0,0
0.0557,0.21,0.9656,-21.7252,-21.2214,4.9008,0,0,0
0.0752,0.2363,0.9983,-25.4046,-19.4656,4.3282,0,0,0
0.0642,0.23,1.0144,-29.1145,-14.7176,3.2748,0,0,0
0.0498,0.2187,1.0056,-29.9313,-12.1985,3.229,0,0,0
0.0271,0.2131,1.0076,-28.8702,-12.2672,4.2977,0,0,0
0.0818,0.2261,1.0388,-25.4962,-12.6718,5.4275,0,0,0
0.0488,0.2175,1.0479,-24.0992,-10.2214,7.0153,0,0,0
0.0562,0.2395,1.0547,-24.4962,-7.0153,9.771,0,0,0
0.0784,0.2393,1.0706,-22.3588,-3.9313,10.0458,0,0,0
0.052,0.2607,1.0764,-18.4122,-0.0305,9.6565,0,0,0
0.0139,0.2688,1.0798,-15.771,0.4122,9.0916,0,0,0
-0.0107,0.2766,1.0767,-14.0687,1.4427,8.0992,0,0,0
0.0833,0.3086,1.1152,-12.3282,2.5267,4.3893,0,0,0
0.0237,0.2783,1.1086,-10.9466,10.1527,1.6489,0,0,0
0.0144,0.2842,1.0732,-12.8168,13.1985,-0.1679,0,0,0
0.0022,0.2935,1.0608,-18.7252,14.3588,-1.2366,0,0,0
0.0005,0.2805,1.0615,-24.9084,15.4351,-4.4733,0,0,0
-0.0215,0.2388,1.0276,-27.6336,16.2901,-7.7863,0,0,0
-0.0291,0.2041,1.0183,-29.5191,14.4351,-9.0229,0,0,0
-0.0051,0.1689,1.019,-27.9237,14.3511,-8.2977,0,0,0
0.0,0.1665,1.0,-26.2443,15.0534,-7.0992,0,0,0
0.0186,0.1782,0.9741,-25.8855,14.458,-5.084,0,0,0
0.0237,0.1953,0.9717,-25.5114,13.0382,-5.3359,0,0,0
-0.009,0.1917,0.9763,-23.0382,10.1603,-5.9618,0,0,0
-0.0261,0.1926,0.9792,-19.1374,5.7939,-7.1527,0,0,0
-0.0313,0.165,1.0132,-15.0611,3.2443,-7.5115,0,0,0
-0.0488,0.1851,1.0298,-13.5802,2.7939,-5.5954,0,0,0
-0.0427,0.2024,1.0352,-14.1374,4.0,-3.8244,0,0,0
-0.0051,0.2107,1.0386,-14.8626,8.8397,-2.5802,0,0,0
-0.0188,0.2114,1.0251,-13.5344,12.1908,-0.4275,0,0,0
-0.0361,0.2078,1.0156,-11.7252,12.4962,2.1374,0,0,0
-0.0527,0.2278,1.01,-10.8244,11.313,3.0,0,0,0
-0.0476,0.208,1.0012,-10.4885,9.5191,1.7023,0,0,0
-0.0498,0.1826,1.0007,-9.5573,7.5573,0.2443,0,0,0
-0.0383,0.168,1.0112,-9.5954,6.4656,1.7176,0,0,0
0.011,0.1428,1.0166,-5.9313,7.0382,2.916,0,0,0
0.0171,0.1323,1.0249,0.7405,8.9771,4.5344,0,0,0
-0.0085,0.1658,1.0007,5.3206,7.9695,7.0229,0,0,0
-0.0195,0.1826,1.0107,7.4046,6.0458,7.2137,0,0,0
-0.0493,0.2017,1.0044,7.2214,3.9313,5.9542,0,0,0
-0.0759,0.2017,1.0095,6.9771,1.1985,4.0534,0,0,0
-0.0854,0.2295,1.0261,4.2061,-0.2214,2.2443,0,0,0
-0.0605,0.2336,1.0415,2.771,0.084,-0.0763,0,0,0
-0.0405,0.2173,1.0483,3.5649,2.8702,-3.4656,0,0,0
-0.0508,0.2131,1.05,6.4962,5.2977,-5.5954,0,0,0
-0.0535,0.1868,1.0398,8.3053,7.1221,-6.7634,0,0,0
-0.0466,0.1506,1.0371,10.6107,8.3053,-8.0534,0,0,0
-0.0437,0.1362,1.0251,11.1832,9.6107,-8.4809,0,0,0
-0.0422,0.1228,1.0203,8.8931,11.1756,-7.2977,0,0,0
-0.0469,0.1204,0.9836,6.8321,10.1374,-5.0153,0,0,0
-0.0391,0.1135,0.9817,5.5878,9.4427,-4.3206,0,0,0
-0.0496,0.0938,0.9841,7.6947,8.5802,-3.4962,0,0,0
-0.0557,0.1047,0.9866,9.9008,6.4504,-2.6107,0,0,0
-0.0432,0.104,0.9971,11.3435,4.9466,-2.7176,0,0,0
-0.0439,0.1213,1.0054,11.9313,4.7252,-3.7176,0,0,0
-0.041,0.1543,1.0105,9.4962,5.5115,-4.8931,0,0,0
-0.063,0.1653,1.0002,5.4504,5.8702,-4.8931,0,0,0
-0.0759,0.156,0.9846,2.3817,5.0992,-5.771,0,0,0
-0.0835,0.1343,0.9849,0.2519,2.2595,-6.0305,0,0,0
-0.0676,0.115,0.9963,-0.2519,0.6565,-4.9313,0,0,0
-0.0559,0.1194,1.0098,0.1374,0.626,-3.2748,0,0,0
-0.0518,0.1387,1.019,1.0,1.3969,-2.6031,0,0,0
-0.0435,0.1616,1.0217,1.7023,2.2214,-2.458,0,0,0
-0.0422,0.1589,1.0237,1.5038,2.6641,-2.5649,0,0,0
-0.0364,0.1506,1.0398,2.9542,4.9313,-2.4427,0,0,0
-0.0496,0.1455,1.0208,3.4351,6.7252,-1.3053,0,0,0
-0.0491,0.1145,1.0112,3.8015,8.3053,0.8931,0,0,0
-0.0613,0.1204,1.0042,6.2595,9.3969,3.4351,0,0,0
-0.0659,0.1489,0.9861,8.0,8.6641,5.8855,0,0,0
-0.0789,0.1787,0.9727,9.1679,5.9466,7.1908,0,0,0
-0.0828,0.2144,0.9785,8.145,3.6031,6.6489,0,0,0
-0.0793,0.2297,0.9836,4.5115,0.3206,5.8244,0,0,0
-0.0554,0.21,1.0083,1.3053,-0.3206,5.1908,0,0,0
-0.0608,0.2251,1.0078,-0.2595,0.2443,5.2672,0,0,0
-0.0674,0.2292,1.0127,-1.4809,0.7252,5.2901,0,0,0
-0.0845,0.2295,1.0093,0.5496,-0.1756,4.5191,0,0,0
-0.0786,0.24,1.0122,1.2595,-0.1069,3.7176,0,0,0
-0.0891,0.2239,1.012,2.5954,0.0992,2.7252,0,0,0
-0.0979,0.2297,1.0115,1.8321,-0.6794,2.7099,0,0,0
-0.0916,0.2273,1.011,0.6183,-1.0076,3.3664,0,0,0
-0.0974,0.2146,1.0054,1.1679,-0.3969,3.6031,0,0,0
-0.1106,0.2073,0.9993,3.4198,-0.4504,4.0382,0,0,0
-0.1086,0.2017,1.0015,6.855,-0.2214,4.084,0,0,0
-0.1038,0.2078,1.0234,10.3282,0.2824,4.3359,0,0,0
-0.0923,0.2292,1.0356,10.916,2.0382,3.9542,0,0,0
-0.0925,0.2571,1.0276,7.7099,3.3511,4.1832,0,0,0
-0.1074,0.2805,1.0129,4.0076,2.7557,3.916,0,0,0
-0.0991,0.2832,1.0151,0.9008,1.6183,2.4351,0,0,0
-0.1008,0.2866,1.0166,-0.7634,0.8397,-0.1603,0,0,0
-0.0911,0.2759,1.0247,-2.3969,-0.7252,-1.4198,0,0,0
-0.0747,0.2788,1.0225,-3.7099,-1.1298,-3.1069,0,0,0
-0.0569,0.2632,1.0327,-3.9542,1.0076,-4.1756,0,0,0
-0.0505,0.2534,1.0295,-3.7481,3.4504,-5.0916,0,0,0
-0.0535,0.2305,1.0286,-2.1679,6.3359,-4.8397,0,0,0
-0.0535,0.2351,1.0056,-1.145,8.229,-4.1298,0,0,0
-0.0508,0.229,0.9956,0.1832,9.4198,-3.3359,0,0,0
-0.0559,0.228,0.9658,1.458,10.313,-2.9389,0,0,0
-0.0825,0.2224,0.9446,2.9008,9.0076,-1.626,0,0,0
-0.0906,0.238,0.9353,3.2595,6.4427,-1.084,0,0,0
-0.093,0.2444,0.9409,3.313,4.0,-1.1374,0,0,0
-0.0908,0.2534,0.9443,2.3359,1.9084,-1.9771,0,0,0
-0.0891,0.2681,0.9329,-1.0382,-0.4427,-3.4046,0,0,0
-0.0894,0.252,0.9419,-4.5649,-2.2061,-4.7252,0,0,0
-0.0747,0.2136,0.9622,-6.3282,-4.6718,-4.4962,0,0,0
-0.0586,0.189,0.9844,-2.9313,-5.4351,-3.0763,0,0,0
-0.0579,0.2124,1.0024,0.3053,-4.916,-2.2137,0,0,0
-0.0549,0.2283,1.0122,2.0458,-4.5802,-2.2519,0,0,0
-0.0481,0.2349,1.0183,2.0305,-4.687,-2.1527,0,0,0
-0.0459,0.2207,1.0205,0.2977,-3.5725,-2.4198,0,0,0
-0.0518,0.1873,1.019,1.0229,-2.4198,-2.2595,0,0,0
-0.0564,0.1746,1.0012,4.3893,-1.3359,-0.7252,0,0,0
-0.051,0.1865,1.0054,7.1298,0.3969,0.4733,0,0,0
-0.0664,0.1956,0.9971,7.5649,1.1145,1.3282,0,0,0
-0.0728,0.228,0.9741,4.9618,1.2824,1.3817,0,0,0
-0.0796,0.2329,0.9675,1.8855,0.2214,0.6641,0,0,0
-0.1077,0.2239,0.9683,-1.7023,-1.687,0.0992,0,0,0
-0.1062,0.2271,0.9771,-4.3206,-3.6565,-1.1756,0,0,0
-0.1123,0.2078,0.9746,-5.771,-4.6718,-1.7634,0,0,0
-0.1052,0.2036,0.9851,-5.4733,-5.5267,-2.0458,0,0,0
-0.0989,0.1624,1.0051,-0.3511,-5.2061,-2.1069,0,0,0
-0.0845,0.1716,1.0161,4.1603,-3.7252,-1.6336,0,0,0
-0.0796,0.21,1.0198,5.5115,-2.1756,-2.145,0,0,0
-0.0745,0.2087,1.01,2.9466,-2.0534,-2.5725,0,0,0
-0.0806,0.2334,1.0022,-1.0229,-2.5115,-2.8626,0,0,0
-0.063,0.2002,1.0125,-2.7023,-4.3435,-2.5344,0,0,0
-0.0564,0.1899,1.0356,0.6107,-4.9847,-1.2214,0,0,0
-0.0569,0.217,1.0571,3.6718,-3.6183,-0.9618,0,0,0
-0.0471,0.2563,1.0796,5.1069,-1.542,-1.4504,0,0,0
-0.0325,0.2788,1.0786,3.3817,1.6107,-2.9924,0,0,0
-0.0298,0.2593,1.0691,2.1374,5.4122,-4.3359,0,0,0
-0.0339,0.2368,1.0396,3.2748,7.4046,-3.3053,0,0,0
-0.0547,0.2361,1.0171,6.626,8.855,-1.2977,0,0,0
-0.073,0.2566,0.9963,8.771,8.4122,0.8473,0,0,0
-0.0947,0.2664,0.9722,8.0229,6.9618,1.0763,0,0,0
-0.0911,0.2607,0.9639,7.8626,5.4351,0.5344,0,0,0
-0.0801,0.2444,0.9658,9.2824,4.0153,-0.0229,0,0,0
-0.061,0.228,0.9648,11.8779,4.0,-0.0763,0,0,0
-0.0669,0.2502,0.9609,14.5115,3.3969,0.5878,0,0,0
-0.085,0.2859,0.9475,15.2824,2.7786,0.1603,0,0,0
-0.1108,0.3245,0.9434,13.4198,-0.1832,-1.2519,0,0,0
-0.1118,0.3152,0.946,9.3664,-3.7099,-4.7786,0,0,0
-0.1191,0.2964,0.9619,5.771,-7.6336,-6.2137,0,0,0
-0.0981,0.2864,0.9814,0.7023,-9.8702,-6.5267,0,0,0
-0.0796,0.2659,0.9946,-2.1908,-9.8473,-6.8626,0,0,0
-0.0676,0.2556,1.0239,-1.542,-9.7099,-5.5496,0,0,0
-0.0781,0.2458,1.0129,0.9924,-4.9389,-6.374,0,0,0
-0.0715,0.2678,1.0159,3.8626,-3.855,-5.229,0,0,0
-0.0811,0.2759,1.0144,4.5649,-3.2214,-5.7328,0,0,0
-0.0918,0.2817,1.0066,3.7939,-3.4351,-5.5115,0,0,0
-0.085,0.261,1.0,2.7634,-4.0076,-5.8092,0,0,0
-0.0728,0.2271,1.009,4.4656,-2.626,-4.8779,0,0,0
-0.0747,0.2363,1.0005,6.4656,-1.0611,-4.3588,0,0,0
-0.0728,0.22,0.999,8.2214,0.2977,-3.1603,0,0,0
-0.0813,0.2261,0.9949,9.6412,2.3817,-2.1145,0,0,0
-0.0984,0.2537,0.9722,9.1908,1.8092,-0.7481,0,0,0
-0.1028,0.2754,0.9661,7.3817,0.7328,-0.8168,0,0,0
-0.1108,0.2878,0.9641,5.3817,-1.3588,-1.5573,0,0,0
-0.1177,0.2952,0.9561,2.7099,-3.3588,-2.7557,0,0,0
-0.1152,0.3,0.9568,-1.1298,-6.0763,-4.7099,0,0,0
-0.0969,0.2739,0.9663,-3.1679,-8.0305,-5.542,0,0,0
-0.0667,0.2224,1.0061,-1.0992,-5.8855,-5.7786,0,0,0
-0.0706,0.2256,1.0078,2.3053,-4.1069,-5.5802,0,0,0
-0.0828,0.2544,0.9817,2.4733,-2.2595,-4.855,0,0,0
-0.0779,0.2598,0.9836,0.4198,-2.4046,-4.5725,0,0,0
-0.0703,0.2578,0.9761,-1.3511,-3.7176,-5.1985,0,0,0
-0.0586,0.2437,0.9763,-1.3588,-5.5191,-5.5725,0,0,0
-0.0503,0.2327,0.9829,-1.6794,-5.6336,-5.4962,0,0,0
-0.043,0.2205,0.9907,-0.4275,-5.4427,-3.8244,0,0,0
-0.0317,0.2302,1.0,0.1679,-4.1603,-2.5649,0,0,0
-0.0591,0.2512,0.9968,0.084,-3.916,-1.1374,0,0,0
-0.0457,0.2432,0.9963,-0.8855,-3.4198,-0.4733,0,0,0
-0.0403,0.2549,1.0071,-0.1985,-1.6107,0.3282,0,0,0
-0.0452,0.2593,1.0032,1.0916,-0.4809,1.6031,0,0,0
-0.0466,0.2688,0.9951,1.7176,-0.1756,2.229,0,0,0
-0.0549,0.2825,0.9961,2.6947,-0.2824,2.4733,0,0,0
-0.0645,0.2966,0.9924,2.0229,-0.9847,2.1756,0,0,0
-0.0649,0.2979,0.9819,0.7023,-1.7176,1.8168,0,0,0
-0.0676,0.2998,0.9919,-0.855,-2.1985,1.374,0,0,0
-0.071,0.293,0.9919,-1.4427,-2.5115,1.5115,0,0,0
-0.0781,0.3115,0.9883,-1.855,-2.4122,1.6031,0,0,0
-0.0779,0.3262,0.9856,-2.9542,-2.4809,0.916,0,0,0
-0.0803,0.3264,0.9956,-4.0153,-2.687,-1.2824,0,0,0
-0.0737,0.3191,0.9966,-4.145,-2.8779,-2.084,0,0,0
-0.0725,0.3125,1.0024,-4.4046,-2.771,-2.4809,0,0,0
-0.0713,0.313,1.0063,-5.6718,-3.0305,-2.6412,0,0,0
-0.0713,0.2944,1.0154,-5.4656,-2.5038,-2.6336,0,0,0
-0.0745,0.2957,1.0056,-5.0687,-2.3511,-2.0458,0,0,0
-0.075,0.2947,1.0195,-4.6031,-1.229,-1.5954,0,0,0
-0.0671,0.2996,1.0203,-3.2748,-0.1069,-2.1145,0,0,0
-0.0674,0.3137,1.0161,-3.0992,0.8397,-1.8779,0,0,0
-0.074,0.3154,1.0098,-4.4656,1.0992,-2.3893,0,0,0
-0.0779,0.3062,1.0056,-5.1527,1.5344,-3.3664,0,0,0
-0.074,0.2759,1.0078,-4.6718,1.6336,-3.6565,0,0,0
-0.0752,0.262,1.0115,-1.3435,3.2443,-2.9771,0,0,0
-0.0681,0.2632,1.0178,1.7252,5.8015,-2.2595,0,0,0
-0.0674,0.2664,0.9939,2.9618,8.5954,-2.2824,0,0,0
-0.0779,0.2891,0.9624,2.6031,9.1679,-2.4427,0,0,0
-0.0835,0.2847,0.9424,0.084,7.7328,-3.313,0,0,0
-0.0967,0.2756,0.9221,-2.6718,4.1221,-3.5191,0,0,0
-0.0898,0.2627,0.9277,-5.1756,-0.8092,-3.4275,0,0,0
-0.075,0.2354,0.9556,-5.145,-4.0153,-3.1679,0,0,0
-0.0635,0.2393,0.981,-2.7405,-4.687,-3.1069,0,0,0
-0.0469,0.2458,1.0007,-1.0916,-3.4809,-3.5344,0,0,0
-0.041,0.2585,0.999,-1.2824,-1.5725,-3.4885,0,0,0
-0.0386,0.2593,1.0034,-2.9771,-0.5191,-3.6031,0,0,0
-0.0708,0.2439,0.9753,-3.6336,-0.7328,-3.1603,0,0,0
-0.0381,0.2349,0.9951,-3.4885,-0.6336,-2.0153,0,0,0
-0.0349,0.2327,0.9951,-2.9237,-1.1069,-0.7252,0,0,0
-0.0344,0.2166,0.989,-2.1985,-0.3282,0.2901,0,0,0
-0.0518,0.2051,0.9834,-1.2672,0.2595,0.4885,0,0,0
-0.0603,0.2019,0.9817,0.1527,1.6641,1.8168,0,0,0
-0.0581,0.2058,0.9626,1.6565,1.7252,3.7557,0,0,0
-0.0879,0.2161,0.949,3.0687,1.5115,5.4046,0,0,0
-0.1084,0.2422,0.9399,3.3664,-0.7176,6.9771,0,0,0
-0.0847,0.2791,0.9661,4.5038,-0.1832,5.0611,0,0,0
-0.085,0.2771,0.9678,5.9389,-1.1679,4.5038,0,0,0
-0.0916,0.2969,0.97,5.3588,-2.9466,2.8931,0,0,0
-0.0964,0.3167,0.9846,1.1374,-6.4885,1.9389,0,0,0
-0.0715,0.2896,0.9961,-3.5115,-8.4809,2.1527,0,0,0
-0.0657,0.2554,1.0029,-4.3206,-10.2366,2.8473,0,0,0
-0.0396,0.2375,1.0361,-0.6947,-10.542,4.6336,0,0,0
-0.0188,0.2686,1.0605,3.4351,-7.0763,5.0611,0,0,0
-0.0273,0.3132,1.0649,5.4275,-2.7786,5.3282,0,0,0
-0.0386,0.3215,1.0596,5.7099,-0.6489,4.4198,0,0,0
-0.0459,0.3188,1.042,4.2366,0.4427,3.4733,0,0,0
-0.0537,0.3162,1.02,3.3206,0.6718,3.5191,0,0,0
-0.0686,0.3108,1.0027,0.3588,-0.4427,3.7863,0,0,0
-0.0793,0.3245,0.9949,-3.3359,-1.8473,3.5115,0,0,0
-0.0879,0.3179,0.9941,-7.916,-3.9924,3.626,0,0,0
-0.0862,0.2913,1.0002,-9.5954,-6.1527,3.5725,0,0,0
-0.0703,0.2722,1.0146,-8.0382,-6.0611,3.3664,0,0,0
-0.0801,0.2788,1.0144,-4.9084,-5.3817,4.0611,0,0,0
-0.0513,0.2649,1.0122,-4.9542,-6.4275,7.542,0,0,0
-0.0874,0.2654,1.0549,-2.3588,-6.7557,9.4275,0,0,0
-0.0554,0.29,1.0659,-3.0763,-3.0611,11.9847,0,0,0
-0.0569,0.2998,1.0657,-5.5725,0.4275,13.8626,0,0,0
-0.0593,0.2874,1.0503,-8.3664,0.2748,14.9237,0,0,0
-0.0549,0.2661,1.0547,-7.9771,-0.9924,14.5496,0,0,0
-0.0476,0.269,1.0671,-4.8321,-1.3435,14.687,0,0,0
-0.0627,0.2771,1.0576,-3.6107,-0.9313,16.2824,0,0,0
-0.0591,0.2844,1.072,-3.4275,-0.4427,19.2061,0,0,0
-0.0427,0.2849,1.0789,-4.3206,0.4885,21.0382,0,0,0
-0.0239,0.2944,1.0811,-5.5878,2.4427,21.7786,0,0,0
-0.0066,0.2725,1.0825,-7.6565,6.8321,22.6947,0,0,0
-0.021,0.2874,1.0454,-9.229,6.4809,25.4198,0,0,0
0.0081,0.248,1.0686,-7.1298,9.8397,27.1527,0,0,0
-0.0002,0.2573,1.064,-0.145,13.3511,28.6641,0,0,0
-0.0071,0.3169,1.0701,3.2901,17.2901,32.6107,0,0,0
0.0088,0.3376,1.0708,1.7176,21.4198,31.7023,0,0,0
0.0251,0.3501,1.0779,-0.0382,26.2137,28.1145,0,0,0
0.0256,0.3428,1.0667,-3.6718,32.2519,25.1527,0,0,0
-0.0002,0.3215,1.0396,-4.2748,33.1603,22.0611,0,0,0
0.0012,0.3062,1.0334,-4.4809,34.8168,22.1985,0,0,0
-0.001,0.2913,1.0273,-4.3511,37.1298,24.1374,0,0,0
0.0098,0.2957,1.0215,-5.1985,38.229,26.6794,0,0,0
0.0105,0.291,1.0056,-10.0382,42.2061,28.8779,0,0,0
-0.0313,0.3015,0.9751,-16.5038,40.5802,31.771,0,0,0
-0.0403,0.2729,1.0115,-20.542,39.0305,37.5725,0,0,0
-0.0649,0.282,0.9937,-22.7557,36.5954,43.9542,0,0,0
-0.0261,0.2803,1.0396,-24.2901,39.9237,50.5878,0,0,0
-0.0286,0.3,0.999,-25.5038,46.1145,52.9008,0,0,0
-0.0081,0.2939,1.0386,-26.771,58.0076,54.3969,0,0,0
-0.0977,0.3145,0.9197,-31.9847,49.4733,52.4122,0,0,0
-0.0652,0.3748,0.9675,-46.542,38.9237,53.855,0,0,0
0.2266,0.3245,1.207,-59.6412,51.0687,61.8473,0,0,0
-0.209,0.2544,0.9658,-64.1832,30.6412,74.7634,0,0,0
-0.0583,0.2942,0.9126,-72.771,16.1069,76.2748,0,0,0
-0.0806,0.1794,1.0381,-69.7939,13.4275,72.0534,0,0,0
0.0029,0.1152,1.1191,-52.5267,18.229,63.0229,0,0,0
-0.0042,0.1768,1.1282,-40.1908,25.0534,56.6031,0,0,0
-0.0408,0.2354,1.1206,-41.9084,35.687,58.0992,0,0,0
-0.0835,0.2026,1.073,-41.4962,40.2595,56.6107,0,0,0
-0.0376,0.1584,1.083,-35.9695,43.8931,55.2748,0,0,0
-0.0603,0.1501,1.0266,-29.4351,44.9542,53.9542,0,0,0
-0.0779,0.1116,1.0271,-24.7863,42.4656,53.4656,0,0,0
-0.0879,0.1416,1.03,-23.5802,40.9008,58.9618,0,0,0
-0.0896,0.1714,1.03,-26.9008,41.6107,66.6031,0,0,0
-0.0752,0.178,1.0449,-29.2061,43.2595,70.6718,0,0,0
-0.0935,0.1821,1.0471,-27.9008,44.6183,69.4351,0,0,0
-0.1006,0.1982,1.0229,-26.3511,43.4656,65.9466,0,0,0
-0.1062,0.1919,0.9714,-26.5725,41.4351,61.2519,0,0,0
-0.1389,0.2119,0.9429,-28.0763,35.687,56.9466,0,0,0
-0.1646,0.1716,0.9277,-28.5725,26.8397,57.0229,0,0,0
-0.1304,0.1008,0.9758,-21.3053,19.626,61.0305,0,0,0
-0.1038,0.134,0.9895,-15.6565,18.2901,62.855,0,0,0
-0.0803,0.1584,0.988,-13.855,17.7557,63.084,0,0,0
-0.0737,0.1682,0.9758,-16.9618,19.2443,60.9084,0,0,0
-0.1018,0.1606,0.9709,-21.6565,20.2214,59.8397,0,0,0
-0.1301,0.1643,0.9551,-24.2443,19.1756,60.7023,0,0,0
-0.1189,0.0664,0.9629,-18.2595,13.1527,57.4122,0,0,0
-0.1016,0.1758,0.9824,-16.4351,18.5802,57.9008,0,0,0
-0.1311,0.2253,0.9543,-18.2977,20.1756,53.6412,0,0,0
-0.1306,0.2332,0.908,-24.542,28.3359,44.9389,0,0,0
-0.1924,0.1897,0.8877,-31.4122,20.7481,44.2519,0,0,0
-0.1309,0.1511,0.9219,-36.6489,20.1603,46.9466,0,0,0
-0.1111,0.1216,0.9443,-33.8855,24.2519,48.1832,0,0,0
-0.1687,0.1321,0.9375,-26.855,26.8168,47.6718,0,0,0
-0.188,0.1326,0.9419,-19.8244,26.1145,46.0534,0,0,0
-0.1721,0.1494,0.9275,-15.2519,25.4351,43.5038,0,0,0
-0.177,0.165,0.9065,-15.1603,25.8702,39.145,0,0,0
-0.2197,0.1831,0.9104,-17.8092,23.8092,36.2366,0,0,0
-0.4424,0.053,0.842,-18.2824,10.771,35.542,0,0,0
-0.1941,0.1204,0.9446,-19.0382,15.0153,37.0458,0,0,0
-0.1619,0.1821,0.9849,-16.9389,18.0916,35.5344,0,0,0
-0.1948,0.1726,0.9683,-15.2672,24.1603,31.8702,0,0,0
-0.2178,0.1682,0.9561,-14.6794,27.3511,25.2366,0,0,0
-0.2539,0.1787,0.9404,-15.8702,27.2977,20.145,0,0,0
-0.3938,0.0828,0.897,-16.1374,23.0534,17.5267,0,0,0
-0.2473,0.1685,0.925,-15.2443,19.0458,16.4046,0,0,0
-0.2666,0.1768,0.9189,-16.0687,15.9466,16.229,0,0,0
-0.2849,0.1709,0.9048,-19.7328,15.8779,16.2748,0,0,0
-0.2808,0.1509,0.9121,-20.8855,17.0992,15.9084,0,0,0
-0.2893,0.1741,0.9219,-19.7252,21.3969,11.9389,0,0,0
-0.332,0.2097,0.9187,-19.145,26.1527,6.229,0,0,0
-0.4009,0.2063,0.8799,-20.6031,26.0687,1.8244,0,0,0
-0.4429,0.1528,0.8865,-18.0611,21.9313,0.855,0,0,0
-0.6184,0.0342,0.8506,-9.6794,11.4427,-1.2137,0,0,0
-0.4971,0.1433,0.9143,-6.8092,9.6336,-3.5496,0,0,0
-0.5039,0.1985,0.9304,-8.8092,5.9084,-6.5344,0,0,0
-0.5083,0.2146,0.9539,-16.0992,6.5038,-10.4351,0,0,0
-0.5146,0.1753,0.9429,-25.2366,8.3664,-12.855,0,0,0
-0.5366,0.1335,0.9424,-31.5038,11.0611,-12.626,0,0,0
-0.5867,0.0801,0.9067,-32.7939,10.9618,-12.5496,0,0,0
-0.5864,0.0471,0.8762,-26.4275,7.3359,-12.2366,0,0,0
-0.5984,-0.0071,0.8462,-16.3511,3.313,-11.6412,0,0,0
-0.5693,0.0283,0.8535,-6.6336,0.771,-9.7252,0,0,0
-0.5837,0.0542,0.8357,-0.3206,-3.1603,-8.9008,0,0,0
-0.5408,0.072,0.8467,-0.2977,-5.6183,-9.4504,0,0,0
-0.5483,0.0491,0.8599,-0.4733,-8.1069,-11.6183,0,0,0
-0.5325,0.0576,0.8799,0.3817,-11.2672,-13.542,0,0,0
-0.5073,0.0542,0.9363,0.5649,-12.7786,-14.5267,0,0,0
-0.4756,0.0271,0.9795,4.7176,-11.0992,-15.4275,0,0,0
-0.5137,0.0413,1.0005,11.8168,-7.6794,-14.9924,0,0,0
-0.4812,0.071,0.9958,14.7786,-4.229,-15.374,0,0,0
-0.4922,0.0781,0.9912,14.6336,-1.2672,-15.9771,0,0,0
-0.4954,0.0989,0.9883,12.3969,0.0611,-15.1603,0,0,0
-0.5007,0.1155,0.9729,9.0305,1.3664,-14.2748,0,0,0
-0.5056,0.1279,0.9631,7.2366,1.2366,-14.7252,0,0,0
-0.4871,0.1418,0.9871,10.0,-0.3435,-17.2366,0,0,0
-0.4287,0.1709,1.0076,13.8244,8.8855,-22.5191,0,0,0
-0.4419,0.1807,0.9766,17.2214,11.8015,-27.9008,0,0,0
-0.4763,0.1648,0.9468,15.313,11.9084,-32.3893,0,0,0
-0.4482,0.1479,0.9353,10.7939,6.084,-33.626,0,0,0
-0.4819,0.1309,0.9448,4.0458,-3.4046,-30.1298,0,0,0
-0.4758,0.0544,1.002,-1.4885,-10.916,-24.9389,0,0,0
-0.459,-0.0078,1.0437,4.2214,-19.7176,-18.0992,0,0,0
-0.3916,0.0249,1.1169,9.229,-25.2977,-11.1832,0,0,0
-0.3015,0.0959,1.1394,9.0382,-26.3588,-7.2366,0,0,0
-0.4297,0.0569,1.1401,4.1985,-17.4504,-7.2901,0,0,0
-0.2412,0.125,1.1902,4.6641,-21.0534,-8.8015,0,0,0
-0.2544,0.0952,1.1792,4.313,-21.2672,-10.229,0,0,0
-0.2185,0.1296,1.1792,4.8321,-23.9313,-11.9237,0,0,0
-0.2178,0.0857,1.1458,3.4351,-27.1908,-11.7863,0,0,0
-0.2571,0.0513,1.1299,4.1527,-28.1908,-9.4427,0,0,0
-0.2869,0.0706,1.1106,5.6641,-33.374,-6.2901,0,0,0
-0.2729,0.1096,1.1187,6.3359,-36.6641,-3.9924,0,0,0
-0.2615,0.1233,1.1265,6.7099,-37.4198,-2.3206,0,0,0
-0.2607,0.127,1.1614,8.6718,-35.2672,-1.4504,0,0,0
-0.2646,0.1003,1.1628,14.3053,-31.9695,0.229,0,0,0
-0.2666,0.1223,1.1672,20.2977,-29.084,0.4733,0,0,0
-0.2424,0.1855,1.1494,21.3206,-26.5802,-0.3359,0,0,0
-0.4856,0.2014,1.0728,16.5344,-23.2595,-4.1679,0,0,0
-0.2263,0.1704,1.1377,12.9695,-25.0611,-5.687,0,0,0
-0.2988,0.1511,1.1306,8.4427,-27.1603,-5.9237,0,0,0
-0.2322,0.1226,1.1694,8.145,-26.5038,-3.2137,0,0,0
-0.2288,0.1028,1.1792,8.4733,-24.4733,-2.5649,0,0,0
-0.2024,0.0925,1.1963,10.458,-18.6641,-5.0076,0,0,0
-0.2502,0.1345,1.1738,7.5038,-19.1298,-4.5115,0,0,0
-0.272,0.1611,1.1643,1.6107,-20.2595,-3.3588,0,0,0
-0.2229,0.1709,1.2131,0.6107,-18.0382,-5.626,0,0,0
-0.2241,0.1831,1.2437,2.3817,-11.6412,-11.1374,0,0,0
-0.2217,0.187,1.2417,4.1527,-6.9008,-16.855,0,0,0
-0.2205,0.1641,1.2158,4.2977,-2.9695,-22.1527,0,0,0
-0.2317,0.1589,1.1816,1.8092,-1.8702,-26.5954,0,0,0
-0.2551,0.1465,1.1689,-3.0458,-4.229,-27.8397,0,0,0
-0.261,0.095,1.1782,-2.9924,-6.3969,-27.3359,0,0,0
-0.2175,0.0696,1.2124,3.6336,-6.0382,-26.3893,0,0,0
-0.1809,0.082,1.2241,12.6947,-2.1679,-27.2748,0,0,0
-0.175,0.1323,1.1899,17.0382,2.7939,-28.1679,0,0,0
-0.1885,0.1721,1.1221,15.6183,3.9313,-29.5191,0,0,0
-0.1987,0.2239,1.0806,7.4351,2.5267,-32.4275,0,0,0
-0.2263,0.2524,1.0535,-4.9924,-1.687,-34.855,0,0,0
-0.2319,0.2126,1.0408,-14.7176,-7.1908,-37.313,0,0,0
-0.2163,0.1423,1.0444,-14.3053,-10.2443,-39.6489,0,0,0
-0.2002,0.1013,1.0291,-10.1832,-11.458,-40.5344,0,0,0
-0.1912,0.0911,0.9956,-5.3359,-12.0153,-40.8702,0,0,0
-0.1724,0.0896,0.9553,-4.916,-12.9695,-41.6947,0,0,0
-0.1541,0.0681,0.9277,-6.1145,-12.9389,-41.7557,0,0,0
-0.175,0.0461,0.9146,-6.3511,-16.6947,-41.3588,0,0,0
-0.1672,0.0103,0.9294,-1.7786,-21.8015,-39.4046,0,0,0
-0.1296,0.002,0.9504,4.1756,-25.2824,-37.9771,0,0,0
-0.0879,0.0134,0.9482,7.771,-25.5954,-36.9237,0,0,0
-0.0593,0.0251,0.9202,7.6183,-23.0458,-36.916,0,0,0
-0.0576,0.009,0.875,4.2366,-21.9924,-38.2366,0,0,0
-0.0869,-0.0146,0.8445,3.9313,-22.7023,-36.5573,0,0,0
-0.1306,-0.0125,0.8071,8.9084,-26.1603,-32.3588,0,0,0
-0.0542,0.084,0.886,16.7405,-42.3588,-25.3511,0,0,0
-0.1782,0.0635,0.7808,28.1603,-38.8015,-30.3359,0,0,0
-0.1257,0.0371,0.8457,33.9313,-42.4656,-33.1756,0,0,0
-0.0957,0.1111,0.8496,33.2901,-37.4122,-37.1908,0,0,0
-0.0842,0.0979,0.8435,28.4275,-34.3511,-39.4198,0,0,0
-0.0791,0.0569,0.8354,22.5878,-29.8702,-40.9084,0,0,0
-0.092,0.009,0.8184,16.5954,-29.9237,-39.2366,0,0,0
-0.1101,0.0151,0.8403,11.6947,-32.4504,-36.2061,0,0,0
-0.1394,-0.0222,0.8547,7.2824,-36.0916,-30.313,0,0,0
-0.0925,-0.0505,0.875,6.4656,-38.7939,-24.5496,0,0,0
-0.0923,-0.061,0.8911,8.9847,-41.8168,-19.4809,0,0,0
-0.114,-0.0547,0.9124,13.9695,-49.0382,-11.7176,0,0,0
-0.1106,-0.0889,0.9604,26.2748,-60.7328,-3.9695,0,0,0
-0.0505,-0.0667,1.022,47.313,-72.0305,2.0153,0,0,0
0.0674,0.0542,1.0864,62.2748,-71.8702,6.0611,0,0,0
0.1284,0.1677,1.1289,63.3664,-62.771,6.1908,0,0,0
0.095,0.2498,1.0967,53.9237,-52.4198,4.8397,0,0,0
0.0483,0.302,1.0632,43.4046,-44.7099,0.3053,0,0,0
0.0398,0.3081,1.033,33.8855,-41.6641,-7.0,0,0,0
0.0337,0.3196,1.0024,27.4504,-43.0229,-15.1832,0,0,0
0.0195,0.2876,0.9592,23.4351,-49.3588,-22.5802,0,0,0
0.0146,0.2708,0.929,23.0611,-61.084,-28.5344,0,0,0
0.0217,0.2788,0.896,20.6794,-76.4198,-33.9389,0,0,0
0.0281,0.2581,0.8313,17.313,-98.3053,-38.1832,0,0,0
0.1094,0.2898,0.8882,14.6947,-117.5649,-36.5115,0,0,0
0.1865,0.3406,0.9648,6.9542,-122.5802,-37.5954,0,0,0
0.2073,0.3447,1.0056,1.313,-119.9084,-42.9008,0,0,0
0.2385,0.3464,1.041,-3.0611,-110.7099,-52.1603,0,0,0
0.2683,0.2827,1.0413,-4.1221,-95.6336,-60.7176,0,0,0
0.2439,0.2466,0.9626,-4.084,-80.458,-65.5267,0,0,0
0.1655,0.2192,0.8972,-3.4809,-73.1145,-64.4504,0,0,0
0.1606,0.2437,0.8623,-2.7939,-71.2519,-62.0305,0,0,0
0.1514,0.2781,0.8501,-6.5573,-66.5802,-55.1908,0,0,0
0.1702,0.3457,0.8555,-16.3588,-59.7023,-51.8168,0,0,0
0.1755,0.3721,0.865,-29.3435,-51.2061,-53.5878,0,0,0
0.1729,0.3635,0.8918,-34.7328,-43.8015,-58.7786,0,0,0
0.1672,0.3772,0.9106,-33.0458,-35.7557,-62.4351,0,0,0
0.1641,0.3926,0.8899,-26.1374,-31.2519,-69.5267,0,0,0
0.1365,0.426,0.8511,-17.7252,-23.9847,-80.0076,0,0,0
0.1074,0.4333,0.8057,-10.6718,-21.5725,-89.0458,0,0,0
0.1162,0.439,0.7517,-4.5115,-21.7099,-96.8321,0,0,0
0.1055,0.4028,0.6897,-2.5725,-24.9847,-102.1908,0,0,0
0.1267,0.3687,0.6614,-3.9313,-32.1527,-106.0305,0,0,0
0.1375,0.3096,0.6614,-5.4427,-43.6565,-107.4886,0,0,0
0.2275,0.2786,0.7859,-10.6031,-48.8702,-104.7939,0,0,0
0.2422,0.2463,0.8613,-17.313,-46.3282,-97.7023,0,0,0
0.2722,0.2239,0.926,-22.9466,-40.9466,-91.916,0,0,0
0.2654,0.2219,0.957,-25.4733,-35.0305,-90.0916,0,0,0
0.2505,0.1956,0.9653,-28.5649,-28.2977,-88.0,0,0,0
0.2371,0.1646,0.9583,-28.8626,-23.2672,-83.7863,0,0,0
0.2224,0.177,0.9558,-29.2901,-19.6183,-78.7939,0,0,0
0.2292,0.1924,0.9714,-30.0382,-14.5802,-72.9237,0,0,0
0.2444,0.2439,1.0027,-32.0687,-3.7634,-71.6183,0,0,0
0.2075,0.2485,0.9917,-34.0153,10.1221,-75.6794,0,0,0
0.1665,0.2175,0.9636,-32.3664,22.8015,-80.1832,0,0,0
0.1536,0.1409,0.9541,-27.4809,33.2214,-81.6412,0,0,0
0.1355,0.1038,0.9226,-21.2214,42.3435,-78.8168,0,0,0
0.1047,0.1252,0.8738,-15.2443,48.1527,-72.5267,0,0,0
0.075,0.1848,0.8232,-12.0763,47.229,-68.3435,0,0,0
0.041,0.2336,0.7991,-12.2214,39.8779,-69.3817,0,0,0
0.0249,0.2244,0.8054,-14.313,31.2748,-72.8168,0,0,0
0.0125,0.168,0.8516,-13.1374,21.4427,-73.5649,0,0,0
0.0208,0.1235,0.8894,-7.458,15.7252,-68.9542,0,0,0
0.0222,0.1177,0.9158,-1.8168,11.6718,-61.3893,0,0,0
0.0032,0.1472,0.9436,-0.6489,9.0076,-53.9237,0,0,0
-0.0154,0.1562,0.9497,-3.3206,5.1603,-47.2061,0,0,0
-0.0237,0.1836,0.9517,-7.3359,-0.4962,-42.8244,0,0,0
-0.009,0.2078,0.9687,-12.8321,-3.7557,-42.8321,0,0,0
0.0103,0.1929,1.002,-14.8092,-5.0534,-44.8855,0,0,0
0.0408,0.1582,1.0354,-13.9771,-0.5038,-43.9389,0,0,0
0.0427,0.1218,1.0549,-8.687,5.9084,-40.4504,0,0,0
0.0334,0.1372,1.053,-4.2366,12.4656,-38.0076,0,0,0
0.0129,0.1716,1.0161,-3.3969,15.3969,-36.458,0,0,0
-0.002,0.1985,0.9805,-6.374,14.7176,-37.145,0,0,0
0.0127,0.1709,0.9785,-11.0,14.1145,-38.9618,0,0,0
0.0115,0.1504,0.9749,-14.7023,14.7481,-38.5115,0,0,0
0.0107,0.1257,0.9631,-14.626,16.2595,-35.4885,0,0,0
0.0081,0.1404,0.959,-13.6794,15.5115,-31.229,0,0,0
0.0054,0.1521,0.938,-12.2748,13.7023,-28.6412,0,0,0
-0.0034,0.1685,0.9417,-11.313,8.687,-26.7405,0,0,0
0.0261,0.2275,0.9397,-12.8931,3.7786,-25.2214,0,0,0
0.0342,0.2173,0.9561,-15.3359,0.8244,-24.9084,0,0,0
0.0493,0.2454,0.9634,-17.8321,-2.0763,-24.6794,0,0,0
0.062,0.2222,0.9773,-17.2061,-1.8779,-26.0992,0,0,0
0.0728,0.2195,0.9937,-15.313,-0.8702,-26.1908,0,0,0
0.0901,0.2212,0.9927,-12.9008,-0.4275,-25.5573,0,0,0
0.1106,0.2109,0.999,-8.4504,-1.7405,-25.2214,0,0,0
0.1257,0.219,1.0083,-5.5649,-2.0916,-24.5954,0,0,0
0.144,0.2034,1.0164,-3.4275,-3.4046,-23.6412,0,0,0
0.1528,0.2095,1.0251,-0.4427,-4.7252,-23.5954,0,0,0
0.1482,0.2053,1.0261,0.8168,-5.6183,-22.6107,0,0,0
0.1414,0.2083,1.0291,-1.145,-7.0458,-20.7557,0,0,0
0.1582,0.1897,1.0425,-3.2977,-7.5573,-18.7252,0,0,0
0.1465,0.2026,1.0588,-6.4962,-6.1603,-17.0534,0,0,0
0.1438,0.1936,1.0625,-10.3053,-4.1069,-15.6718,0,0,0
0.1311,0.1753,1.0664,-11.4656,-2.0916,-16.458,0,0,0
0.1138,0.1545,1.0686,-13.3282,0.0229,-16.6947,0,0,0
0.1082,0.1003,1.0728,-12.6947,1.6794,-14.4504,0,0,0
0.0994,0.0593,1.0769,-11.374,3.3206,-10.1374,0,0,0
0.094,0.062,1.0842,-9.6489,5.6947,-3.6641,0,0,0
0.0854,0.0667,1.0776,-8.3359,7.3817,2.7328,0,0,0
0.0745,0.1096,1.071,-8.1145,8.855,7.4046,0,0,0
0.0642,0.1416,1.0686,-9.0305,11.1374,10.6641,0,0,0
0.0645,0.1409,1.0657,-9.5725,14.4427,11.6183,0,0,0
0.0649,0.1453,1.0496,-8.9237,18.7863,12.855,0,0,0
0.0491,0.1367,1.0457,-7.8931,22.4198,16.771,0,0,0
0.0476,0.1296,1.0479,-7.9924,24.4427,23.6718,0,0,0
0.032,0.1606,1.0322,-9.9542,26.0611,32.4656,0,0,0
0.0037,0.1792,1.0007,-13.6412,24.3893,39.2366,0,0,0
-0.0078,0.1907,0.9866,-18.1145,22.2977,43.5038,0,0,0
-0.0022,0.1819,0.9878,-21.9389,21.0916,45.2901,0,0,0
0.0264,0.2012,1.0195,-23.6412,22.2443,49.2061,0,0,0
0.0337,0.2053,0.9795,-24.2061,26.8779,51.6412,0,0,0
0.0049,0.2131,0.967,-24.6489,28.5802,52.0305,0,0,0
-0.03,0.2166,0.9326,-23.5038,24.084,49.9618,0,0,0
-0.0496,0.1426,0.97,-22.7557,18.7176,48.2443,0,0,0
-0.0413,0.1401,0.979,-19.3282,15.0458,48.0916,0,0,0
-0.0469,0.146,0.9885,-17.6718,12.626,47.3053,0,0,0
-0.0493,0.1572,1.0024,-14.7099,11.5344,45.2519,0,0,0
-0.0669,0.1631,0.9966,-11.2137,10.0,41.7252,0,0,0
-0.0674,0.1721,1.0073,-8.6794,8.2214,37.5267,0,0,0
-0.0525,0.1902,1.0291,-4.6718,10.1832,34.7557,0,0,0
-0.052,0.1755,1.0388,-1.5725,13.0229,30.7863,0,0,0
-0.0349,0.2053,1.0398,-0.7252,17.6794,24.3817,0,0,0
-0.0586,0.2119,1.0356,-2.9084,19.5114,16.855,0,0,0
-0.0742,0.1753,1.0188,-6.5802,18.7481,8.4275,0,0,0
-0.1001,0.1404,0.9836,-7.6183,16.7481,2.3817,0,0,0
-0.1069,0.1057,0.9719,-4.9466,11.7023,-1.6641,0,0,0
-0.1113,0.0576,0.9827,-0.6336,7.2214,-4.771,0,0,0
-0.1162,0.0684,0.9951,2.7863,4.3588,-5.1298,0,0,0
-0.1208,0.0898,1.0059,1.9466,1.8015,-6.0458,0,0,0
-0.115,0.0435,1.0239,0.374,-1.2672,-5.9771,0,0,0
-0.1252,0.0112,1.0435,1.9466,-3.6107,-5.8702,0,0,0
-0.1431,0.0034,1.0532,4.7481,-5.687,-7.0305,0,0,0
-0.1465,0.0059,1.0742,7.4656,-7.6947,-8.6336,0,0,0
-0.1428,0.0139,1.083,6.9771,-7.9924,-8.0229,0,0,0
-0.1443,0.021,1.0984,2.5344,-8.0076,-6.8626,0,0,0
-0.1511,0.0039,1.1201,-3.0,-7.0229,-6.7939,0,0,0
-0.1533,-0.0083,1.1477,-5.5191,-5.2595,-7.2977,0,0,0
-0.1521,-0.064,1.1638,-6.5038,-2.8168,-6.7328,0,0,0
-0.1462,-0.0923,1.1787,-4.3664,1.8626,-6.2748,0,0,0
-0.1555,-0.0938,1.1787,-3.687,6.0076,-3.6489,0,0,0
-0.1528,-0.0715,1.1719,-7.0916,10.5038,-2.8626,0,0,0
-0.1646,-0.0776,1.1599,-11.5267,13.3893,-1.771,0,0,0
-0.1638,-0.1028,1.1548,-14.7863,16.0305,-0.6947,0,0,0
-0.1658,-0.1533,1.1387,-13.2748,17.4198,0.3282,0,0,0
-0.1711,-0.1472,1.1194,-10.7023,19.1527,2.2061,0,0,0
-0.1838,-0.1523,1.0942,-10.4122,18.7634,5.2748,0,0,0
-0.1807,-0.1284,1.0937,-12.1374,18.0611,8.5344,0,0,0
-0.1733,-0.1221,1.0923,-17.0458,19.458,11.313,0,0,0
-0.1731,-0.1433,1.0935,-19.6412,22.374,13.8855,0,0,0
-0.178,-0.1621,1.0837,-18.4962,25.4198,15.7023,0,0,0
-0.1877,-0.1506,1.0603,-16.6107,28.2366,17.8244,0,0,0
-0.2021,-0.135,1.0303,-17.5038,29.6565,20.7481,0,0,0
-0.2183,-0.1272,1.0063,-19.2901,28.5725,23.6565,0,0,0
-0.2141,-0.123,0.9927,-20.5114,26.3817,26.0076,0,0,0
-0.2168,-0.1465,0.9978,-20.5114,24.6412,28.6794,0,0,0
-0.2205,-0.1201,0.988,-19.542,24.1756,31.2748,0,0,0
-0.2249,-0.0959,0.9792,-20.4275,23.3817,32.8855,0,0,0
-0.2097,-0.1108,0.9941,-22.2824,23.0153,34.687,0,0,0
-0.2021,-0.0918,0.9878,-25.2214,24.4733,36.5115,0,0,0
-0.2004,-0.0935,0.9714,-28.6565,24.458,38.084,0,0,0
-0.2083,-0.1008,0.9585,-30.5114,22.8779,40.0153,0,0,0
-0.2114,-0.1123,0.9575,-31.1832,20.771,41.8473,0,0,0
-0.1985,-0.1133,0.9717,-30.3511,19.2901,42.5725,0,0,0
-0.1951,-0.1038,0.9702,-30.2443,17.8321,42.7481,0,0,0
-0.1904,-0.1138,0.9746,-30.9542,16.8473,43.1221,0,0,0
-0.1973,-0.1194,0.98,-32.1374,15.1298,43.9466,0,0,0
-0.1846,-0.1731,0.9897,-30.8321,12.9542,45.7252,0,0,0
-0.1694,-0.2041,1.0134,-25.084,12.7099,49.2977,0,0,0
-0.1599,-0.1819,1.0159,-20.8702,13.7328,52.6641,0,0,0
-0.1721,-0.1626,1.0146,-19.229,13.8244,55.3053,0,0,0
-0.1594,-0.1404,1.0168,-20.4962,12.4809,56.0076,0,0,0
-0.1516,-0.1318,1.0081,-21.2824,10.458,57.0916,0,0,0
-0.1497,-0.1707,1.0247,-18.2443,7.5649,59.8779,0,0,0
-0.1326,-0.1423,1.0435,-13.7099,6.4962,63.8321,0,0,0
-0.1091,-0.1174,1.0603,-11.3435,7.687,65.5496,0,0,0
-0.1021,-0.0925,1.0757,-8.9618,10.1985,66.0611,0,0,0
-0.0847,-0.0571,1.0842,-8.2977,12.8702,66.0992,0,0,0
-0.083,-0.0398,1.0754,-9.6794,14.9695,65.1985,0,0,0
-0.0955,-0.0308,1.0447,-11.6947,15.5496,64.1985,0,0,0
-0.0986,-0.0308,1.0405,-14.9237,13.8702,63.0534,0,0,0
-0.085,-0.0889,1.0405,-14.7405,12.0382,63.916,0,0,0
-0.072,-0.0886,1.0659,-9.2977,12.9771,65.3283,0,0,0
-0.0857,-0.0518,1.0496,-5.0382,14.1298,66.0305,0,0,0
-0.105,-0.0271,1.0308,-3.2519,13.0,65.374,0,0,0
-0.1077,0.0024,1.0242,-3.6183,11.7939,63.771,0,0,0
-0.1013,0.0002,1.0291,-5.4962,10.1145,62.9618,0,0,0
-0.0859,-0.0212,1.0535,-4.0458,11.4733,63.1603,0,0,0
-0.0876,0.0051,1.0459,-3.0305,13.4198,64.1527,0,0,0
-0.0869,0.0281,1.0449,-3.0687,13.5802,64.1145,0,0,0
-0.1001,0.041,1.0334,-5.2366,13.6031,62.7099,0,0,0
-0.1143,0.0603,1.0188,-6.8855,11.7557,62.7252,0,0,0
-0.104,0.074,1.0254,-8.9313,11.626,62.2137,0,0,0
-0.1047,0.0801,1.0242,-9.6031,11.9313,61.3206,0,0,0
-0.1008,0.04,1.0178,-6.7557,10.8626,60.2977,0,0,0
-0.0916,0.0579,1.0161,-1.7786,11.2214,59.4351,0,0,0
-0.103,0.0828,1.0071,1.3053,11.3664,58.7557,0,0,0
-0.1084,0.114,0.9858,1.0458,10.2443,57.9542,0,0,0
-0.1118,0.1421,0.9768,-1.855,9.0382,56.0916,0,0,0
-0.1128,0.1404,0.9678,-6.2748,7.4046,54.1679,0,0,0
-0.1033,0.116,0.9844,-8.0,6.5802,53.4656,0,0,0
-0.0916,0.0925,1.0,-6.3511,8.1527,53.1679,0,0,0
-0.0889,0.1018,1.0095,-3.1145,11.458,53.0916,0,0,0
-0.1057,0.1296,1.0085,-1.9084,14.3206,53.0305,0,0,0
-0.1118,0.1694,0.9902,-4.8168,16.2672,50.6565,0,0,0
-0.1179,0.1829,0.9763,-11.1145,15.9389,47.3359,0,0,0
-0.1208,0.1477,0.9604,-15.542,14.8931,44.2061,0,0,0
-0.1082,0.116,0.9648,-17.8092,13.916,42.4962,0,0,0
-0.0935,0.0718,0.9675,-17.7405,13.1908,41.9695,0,0,0
-0.0857,0.0608,0.9673,-15.6336,13.855,42.1832,0,0,0
-0.0859,0.0615,0.9592,-14.5115,14.916,43.1069,0,0,0
-0.1021,0.0842,0.9482,-16.0611,14.2519,42.4046,0,0,0
-0.1248,0.1038,0.926,-20.4275,11.0687,41.313,0,0,0
-0.1313,0.0835,0.9326,-24.4427,6.5573,39.5802,0,0,0
-0.1174,0.0662,0.9392,-24.7405,3.8779,38.7328,0,0,0
-0.1223,0.0439,0.9453,-22.1374,1.5344,39.0229,0,0,0
-0.124,0.0398,0.95,-17.4885,-1.8931,40.0611,0,0,0
-0.1353,0.0503,0.97,-13.0763,-4.2901,41.6947,0,0,0
-0.1343,0.0664,0.9995,-8.2595,-6.6107,41.374,0,0,0
-0.124,0.1121,1.0095,0.4885,-6.6031,33.8397,0,0,0
-0.1162,0.1555,1.0334,6.4656,-2.229,27.8015,0,0,0
-0.1321,0.1526,1.0088,9.7176,0.1603,24.9771,0,0,0
-0.1516,0.166,0.999,10.2061,-1.3588,26.3511,0,0,0
-0.1506,0.2009,1.0251,8.4962,-3.9313,30.5191,0,0,0
-0.1426,0.2036,1.0349,6.4351,-4.2977,32.4046,0,0,0
-0.1318,0.2073,1.0508,6.0916,-2.1145,33.5038,0,0,0
-0.1277,0.2004,1.0625,7.1145,0.771,34.1221,0,0,0
-0.126,0.2273,1.0439,7.2901,3.9313,33.6489,0,0,0
-0.1306,0.2588,1.0115,5.1527,5.5649,32.9466,0,0,0
-0.1379,0.2666,1.0078,1.1756,4.2061,30.8626,0,0,0
-0.126,0.252,1.0112,-4.1069,2.1527,28.542,0,0,0
-0.1191,0.2207,1.0146,-5.5496,1.5954,27.6489,0,0,0
-0.104,0.1887,1.0295,-4.1221,2.4198,26.6336,0,0,0
-0.095,0.1851,1.0273,-1.9389,3.3664,23.9847,0,0,0
-0.0793,0.186,1.0281,1.6565,4.1298,19.1756,0,0,0
-0.0786,0.1997,1.03,4.0458,5.4122,13.8855,0,0,0
-0.0898,0.1831,1.0239,5.2824,5.5038,10.9008,0,0,0
-0.0518,0.2134,1.0232,6.6031,5.1603,9.1374,0,0,0
-0.1106,0.1929,1.0176,5.229,5.145,7.855,0,0,0
-0.1228,0.1733,1.0259,3.8473,2.4351,7.8244,0,0,0
-0.1431,0.187,1.0269,1.3588,-1.1908,8.8626,0,0,0
-0.1497,0.1846,1.0437,-0.4885,-2.7099,9.4122,0,0,0
-0.1499,0.1741,1.0706,-0.1985,-2.9771,9.771,0,0,0
-0.1404,0.1824,1.0845,0.0229,0.7176,11.8779,0,0,0
-0.1353,0.1948,1.0837,0.229,5.8397,12.7099,0,0,0
-0.134,0.2312,1.0745,-2.1679,12.3053,10.1908,0,0,0
-0.1587,0.2397,1.053,-5.5344,16.2519,6.9924,0,0,0
-0.1655,0.2297,1.0237,-8.5802,17.6107,4.1069,0,0,0
-0.1702,0.2217,0.9937,-10.8092,17.3969,-0.0916,0,0,0
-0.165,0.1582,0.9702,-9.8015,15.1374,-3.9695,0,0,0
-0.1628,0.1138,0.9773,-4.0763,12.4656,-7.1603,0,0,0
-0.1758,0.1118,0.9685,0.8321,10.0382,-8.2519,0,0,0
-0.1848,0.1292,0.9551,2.2519,7.0305,-9.6947,0,0,0
-0.1926,0.1296,0.9448,1.8015,2.3435,-12.542,0,0,0
-0.1968,0.1135,0.9517,-0.9542,-2.6183,-14.0534,0,0,0
-0.1958,0.0486,0.9753,0.8015,-7.626,-13.5802,0,0,0
-0.1777,0.0344,0.99,6.626,-10.2214,-14.0534,0,0,0
-0.1768,0.0322,1.0088,14.4275,-11.2137,-15.5649,0,0,0
-0.1873,0.072,1.0012,17.4122,-12.9771,-17.855,0,0,0
-0.1941,0.0742,1.0044,17.3053,-13.4962,-18.0,0,0,0
-0.1958,0.0747,1.0085,14.7023,-13.7939,-17.855,0,0,0
-0.2065,0.0762,1.0247,11.3588,-13.3817,-16.1298,0,0,0
-0.2217,0.0737,1.0115,8.0534,-12.313,-13.7176,0,0,0
-0.2129,0.0884,1.0139,7.4733,-12.2061,-17.0992,0,0,0
-0.2236,0.0916,1.0188,8.6183,-9.0229,-22.4962,0,0,0
-0.2493,0.0671,0.9976,9.3511,-9.2519,-25.0153,0,0,0
-0.2588,0.0503,0.9695,9.1985,-13.2977,-24.4885,0,0,0
-0.2434,0.0439,0.9587,7.1985,-16.7939,-22.9313,0,0,0
-0.2461,0.021,0.9519,6.0076,-21.6794,-20.2672,0,0,0
-0.1975,0.0464,0.9854,3.1298,-22.3893,-17.6031,0,0,0
-0.1951,0.0269,1.0005,2.687,-23.0458,-18.8626,0,0,0
-0.1824,0.0449,1.0198,4.0992,-22.9084,-19.7786,0,0,0
-0.1941,0.0103,1.0066,6.5802,-23.9618,-20.6489,0,0,0
-0.1829,0.0266,1.0078,8.0611,-24.8092,-18.8168,0,0,0
-0.1812,0.01,1.0173,10.8244,-25.1527,-17.1985,0,0,0
-0.1765,0.0127,1.0139,14.0992,-25.6031,-13.8321,0,0,0
-0.1475,-0.0151,1.0369,15.7023,-24.5191,-7.5802,0,0,0
-0.1255,0.0156,1.051,13.7328,-18.9924,-0.229,0,0,0
-0.1208,0.0217,1.063,9.8626,-11.1069,5.2214,0,0,0
-0.1223,0.0427,1.0754,5.3511,-3.5496,9.5802,0,0,0
-0.1206,0.0466,1.0686,-0.0458,4.4427,14.2214,0,0,0
-0.1438,0.0464,1.0476,-4.9237,9.8397,18.2977,0,0,0
-0.1763,0.0571,1.0134,-7.3359,10.4733,20.458,0,0,0
-0.1853,0.0701,0.9973,-7.626,8.6794,22.5344,0,0,0
-0.1899,0.0645,0.9915,-6.1832,6.8779,25.1832,0,0,0
-0.1787,0.0588,1.002,-4.9008,6.3664,28.084,0,0,0
-0.1685,0.0742,1.0269,-5.5954,8.9924,30.8015,0,0,0
-0.1624,0.0815,1.0291,-7.5878,12.145,32.3893,0,0,0
-0.1694,0.092,1.0127,-11.0458,13.9542,34.1145,0,0,0
-0.1855,0.1084,0.9895,-15.4046,14.1298,36.0,0,0,0
-0.1812,0.0791,0.9761,-18.8473,12.8855,40.0153,0,0,0
-0.1638,0.0908,0.988,-21.2824,12.084,43.9542,0,0,0
-0.1604,0.0952,1.0002,-20.542,11.1679,43.0611,0,0,0
-0.147,0.1289,1.0259,-17.3282,13.3282,41.2061,0,0,0
-0.1553,0.1631,1.0273,-15.2061,16.313,35.5802,0,0,0
-0.1667,0.1838,1.0244,-14.2443,18.145,30.8626,0,0,0
-0.1748,0.166,1.0044,-13.1603,19.9237,28.1756,0,0,0
-0.1836,0.1567,0.9929,-11.374,20.8855,27.6031,0,0,0
-0.1895,0.1479,0.9727,-10.6565,20.1527,26.3511,0,0,0
-0.2048,0.1431,0.9458,-10.3817,17.9924,26.3282,0,0,0
-0.2014,0.1487,0.939,-13.3435,13.7405,27.0229,0,0,0
-0.1897,0.1589,0.9504,-14.4962,9.084,23.9618,0,0,0
-0.1953,0.1487,0.957,-11.5038,6.4427,16.1069,0,0,0
-0.2068,0.1455,0.9333,-7.4275,3.4885,10.6107,0,0,0
-0.2273,0.1331,0.9326,-4.5573,-0.6565,8.5649,0,0,0
-0.1968,0.1279,0.9548,-2.4198,-3.3053,10.2672,0,0,0
-0.1802,0.1191,0.9771,-1.6031,-1.542,12.0458,0,0,0
-0.1965,0.1389,0.9917,-2.8397,0.8168,12.1985,0,0,0
-0.2231,0.1396,0.9709,-4.9389,0.0992,11.4656,0,0,0
-0.2222,0.1279,0.9707,-7.4656,-2.9313,12.2061,0,0,0
-0.2031,0.1003,0.999,-9.3664,-3.0992,14.2519,0,0,0
-0.2095,0.0967,0.9939,-9.5496,-2.7557,16.2519,0,0,0
-0.2065,0.0945,0.998,-9.2061,-2.8931,16.7634,0,0,0
-0.2026,0.105,1.0139,-9.8702,-3.1221,15.6412,0,0,0
-0.2056,0.095,1.0154,-11.8702,-4.1374,15.4809,0,0,0
-0.1826,0.0854,1.0339,-14.542,-3.4198,16.2977,0,0,0
-0.1819,0.0681,1.0542,-14.8702,-1.5725,14.0229,0,0,0
-0.1848,0.0576,1.041,-10.626,-0.229,12.1298,0,0,0
-0.1848,0.0654,1.0405,-6.1679,0.5038,9.8015,0,0,0
-0.1885,0.0798,1.0447,-4.6947,1.6947,8.855,0,0,0
-0.1938,0.074,1.0361,-5.7481,2.5725,9.626,0,0,0
-0.1931,0.0698,1.0347,-8.8321,3.6718,11.4962,0,0,0
-0.199,0.0627,1.0254,-11.4733,3.9313,12.374,0,0,0
-0.1846,0.0295,1.0312,-10.6489,5.4046,13.542,0,0,0
-0.1882,0.0298,1.0291,-9.8397,6.3588,15.4962,0,0,0
-0.2063,0.05,1.011,-10.5649,6.0153,17.7252,0,0,0
-0.2214,0.0576,1.0112,-12.7405,3.8779,19.5191,0,0,0
-0.2068,0.0474,1.0178,-14.2672,2.7939,21.5725,0,0,0
-0.1765,0.0212,1.0505,-13.542,5.1069,25.8473,0,0,0
-0.1702,0.0259,1.0671,-13.0076,10.4656,29.313,0,0,0
-0.1953,0.0352,1.0422,-13.4046,13.8855,31.4504,0,0,0
-0.2068,0.0559,1.0134,-14.0687,13.7252,32.8015,0,0,0
-0.22,0.0564,0.9863,-14.3435,11.4656,32.916,0,0,0
-0.2229,0.0469,0.9934,-13.9313,8.1603,33.1985,0,0,0
-0.2083,0.0408,1.0083,-12.8702,6.5954,35.5954,0,0,0
-0.1814,0.0317,1.0291,-13.7023,7.4427,43.3817,0,0,0
-0.1848,0.0129,1.0232,-17.2061,10.1908,52.8244,0,0,0
-0.2107,0.0276,0.9863,-19.8321,9.1298,57.2061,0,0,0
-0.2251,0.0706,0.9788,-21.9542,4.7863,55.7481,0,0,0
-0.196,0.0847,0.9988,-23.2137,3.6718,50.2901,0,0,0
-0.1946,0.0693,1.0051,-20.0229,5.0229,44.4427,0,0,0
-0.1951,0.0618,1.0115,-13.3969,6.9008,39.6107,0,0,0
-0.2012,0.0642,1.0042,-7.6718,10.3206,37.3206,0,0,0
-0.2043,0.104,1.0164,-3.8626,12.313,34.7099,0,0,0
-0.2434,0.1362,0.9771,-3.3206,12.3893,30.916,0,0,0
-0.2314,0.1458,0.9863,-6.7023,9.3817,27.1069,0,0,0
-0.2275,0.1309,0.9817,-9.8779,9.0992,25.0305,0,0,0
-0.2434,0.1162,0.978,-9.8779,7.9389,22.084,0,0,0
-0.2231,0.0959,0.9812,-9.0611,7.2366,19.855,0,0,0
-0.229,0.0796,0.9814,-6.9924,6.8702,18.9008,0,0,0
-0.229,0.0781,0.9937,-5.3435,7.1298,17.313,0,0,0
-0.2297,0.0842,0.9844,-3.8092,5.6489,17.1145,0,0,0
-0.2417,0.0964,0.9832,-3.7786,4.4962,16.5267,0,0,0
-0.2366,0.1135,0.9802,-5.6718,3.2137,16.4962,0,0,0
-0.2385,0.1067,0.9714,-6.7099,1.0,15.1069,0,0,0
-0.2427,0.1072,0.9709,-6.6107,-1.2824,11.8168,0,0,0
-0.2283,0.0808,1.0066,-4.5725,-1.4962,9.0153,0,0,0
-0.2119,0.0703,1.0259,0.0687,1.1679,7.2672,0,0,0
-0.2261,0.0847,1.0293,3.8626,2.4809,6.3206,0,0,0
-0.238,0.1179,1.0117,3.4962,1.8015,5.7557,0,0,0
-0.2327,0.1094,1.009,0.3664,0.7863,5.6794,0,0,0
-0.2393,0.1091,1.0061,-2.5954,0.1221,6.0916,0,0,0
-0.229,0.0999,1.0095,-4.3511,0.084,5.9618,0,0,0
-0.2241,0.0886,1.0132,-5.0763,0.6107,5.6565,0,0,0
-0.2349,0.0864,1.0034,-3.8168,1.2366,4.7939,0,0,0
-0.2341,0.084,1.0115,-2.2214,0.4962,3.5267,0,0,0
-0.2275,0.0789,0.9985,0.5344,0.1298,2.6641,0,0,0
-0.2354,0.0894,0.9917,1.9084,-1.1069,1.4962,0,0,0
-0.2295,0.0891,1.002,1.2595,-2.0916,1.7099,0,0,0
-0.208,0.0764,1.02,0.145,-0.4122,3.1908,0,0,0
-0.2156,0.0874,1.0105,-2.9466,0.9847,4.7023,0,0,0
-0.2285,0.0869,0.989,-6.4656,0.6489,5.1603,0,0,0
-0.2307,0.0757,0.9817,-9.0153,-0.9771,4.8092,0,0,0
-0.2351,0.0686,0.9675,-9.2443,-2.8015,4.1679,0,0,0
-0.2322,0.0527,0.9585,-7.0153,-4.9008,3.4122,0,0,0
-0.2346,0.0396,0.9602,-3.0458,-7.5191,2.8702,0,0,0
-0.24,0.0386,0.9595,2.2214,-9.8855,1.4198,0,0,0
-0.2427,0.0532,0.9495,6.3053,-12.6565,-0.0076,0,0,0
-0.3784,0.0718,0.8992,7.6641,-23.1985,1.0076,0,0,0
-0.2524,0.0845,0.926,6.7786,-25.8626,-2.1527,0,0,0
-0.2781,0.0549,0.9043,8.7939,-36.0687,-3.8702,0,0,0
-0.2888,0.0381,0.8901,15.1985,-49.2901,-6.3664,0,0,0
-0.2534,0.0642,0.9072,22.5725,-62.5038,-7.6336,0,0,0
-0.2327,0.0557,0.9021,28.1985,-72.313,-9.3435,0,0,0
-0.1575,0.1062,0.9385,29.9313,-76.7863,-9.4122,0,0,0
-0.0864,0.1143,0.9885,25.5038,-72.9237,-9.4198,0,0,0
-0.115,0.0989,1.0029,19.8702,-67.7023,-7.6336,0,0,0
-0.1204,0.1028,1.0342,16.3206,-65.0763,-6.1908,0,0,0
-0.0813,0.1428,1.0298,14.2748,-61.5496,-4.9695,0,0,0
-0.0767,0.1167,1.0557,12.9771,-57.3511,-1.1603,0,0,0
-0.0715,0.123,1.0593,12.5344,-50.6412,1.7634,0,0,0
-0.0696,0.155,1.052,11.1145,-46.0,2.4198,0,0,0
-0.0791,0.1804,1.0232,8.0076,-43.7939,1.9084,0,0,0
-0.0903,0.1294,0.9944,5.7939,-43.7634,0.8015,0,0,0
-0.0505,0.1646,0.9937,3.9237,-43.3206,-0.8168,0,0,0
-0.0554,0.1294,0.999,1.7786,-44.0534,-2.3282,0,0,0
-0.0173,0.1226,1.0503,3.4962,-40.916,-0.229,0,0,0
-0.012,0.1394,1.0852,5.8779,-34.7405,2.6336,0,0,0
0.001,0.1807,1.0842,3.8473,-27.1832,3.5725,0,0,0
0.0071,0.2148,1.0964,0.145,-19.7786,0.6794,0,0,0
0.0139,0.1895,1.1147,-1.5573,-10.4809,-3.7786,0,0,0
0.0022,0.1614,1.1233,0.5038,-1.5038,-5.542,0,0,0
-0.0051,0.1873,1.0999,2.0076,6.4046,-6.2595,0,0,0
-0.0361,0.2178,1.0659,0.4733,8.7328,-8.2595,0,0,0
-0.0449,0.2261,1.0374,-2.9313,8.4504,-10.6565,0,0,0
-0.0435,0.1943,1.0322,-5.9008,6.4351,-12.4656,0,0,0
-0.0369,0.1545,1.0366,-4.084,4.5496,-14.6107,0,0,0
-0.0264,0.1384,1.05,1.5267,5.1374,-16.2977,0,0,0
-0.0122,0.1499,1.0598,7.1832,7.5649,-20.1679,0,0,0
-0.0149,0.1929,1.0752,11.3817,10.4122,-26.6336,0,0,0
-0.0166,0.2244,1.0935,15.9542,13.9237,-38.4809,0,0,0
-0.0347,0.2356,1.0723,18.0305,18.8321,-45.6641,0,0,0
-0.0334,0.2078,1.0469,19.0458,21.6718,-51.0076,0,0,0
-0.0535,0.198,1.0483,21.1756,23.4733,-52.7023,0,0,0
-0.053,0.2031,1.0396,20.7634,24.8779,-53.0458,0,0,0
-0.0603,0.1956,1.0354,21.7863,26.3511,-58.2977,0,0,0
-0.0793,0.1992,1.0225,20.313,27.7176,-60.0611,0,0,0
-0.0879,0.1531,1.0051,18.8397,25.7863,-56.5649,0,0,0
-0.1106,0.134,1.0007,15.2901,24.5878,-49.2443,0,0,0
-0.0835,0.165,1.0208,13.5649,23.0229,-45.6641,0,0,0
-0.083,0.1536,1.0415,13.4351,26.6947,-45.9466,0,0,0
-0.106,0.1472,1.0183,11.3359,27.7481,-43.9771,0,0,0
-0.1338,0.1299,1.0032,8.8321,26.8473,-39.8779,0,0,0
-0.1162,0.125,1.0056,5.9542,26.4275,-33.5267,0,0,0
-0.1213,0.1267,1.0203,4.4809,27.7481,-29.0458,0,0,0
-0.1348,0.1321,1.0244,4.8779,27.1679,-27.5802,0,0,0
-0.168,0.1423,1.0051,4.8092,25.9618,-25.1985,0,0,0
-0.1753,0.1323,0.9807,4.5573,22.9084,-22.2214,0,0,0
-0.1826,0.1445,0.9648,2.7481,18.229,-19.9008,0,0,0
