ax,ay,az,gx,gy,gz,left_click,right_click
0.0808,0.0315,1.033,-4.3435,-6.9542,2.0534,0,0,0
0.0798,0.0295,1.0515,-5.7405,-5.229,2.5267,0,0,0
0.0857,0.0259,1.0518,-6.916,-2.4885,2.8779,0,0,0
0.0896,0.0371,1.0413,-6.5573,-1.4504,3.5267,0,0,0
0.0935,0.0403,1.0437,-5.9237,-1.374,2.2061,0,0,0
0.0925,0.0435,1.0439,-5.1145,-0.855,0.6641,0,0,0
0.0933,0.0344,1.0408,-5.2519,-0.4656,-1.8931,0,0,0
0.0823,0.0208,1.0374,-4.1069,-0.5802,-3.6565,0,0,0
0.0708,0.0188,1.0281,-2.2595,-1.8168,-4.8244,0,0,0
0.0718,0.0083,1.0281,-0.9771,-3.4809,-4.542,0,0,0
0.0791,0.0127,1.0398,-1.0992,-3.4656,-3.8168,0,0,0
0.0757,0.0112,1.0515,-1.6565,-2.3206,-3.5573,0,0,0
0.0823,0.0,1.0505,-2.9542,-0.4198,-3.4122,0,0,0
0.0767,0.0088,1.0254,-3.9771,0.1603,-3.2595,0,0,0
0.074,0.0015,1.0276,-5.1832,0.1985,-3.7481,0,0,0
0.0789,-0.0015,1.0225,-6.0076,0.3817,-3.8855,0,0,0
0.0789,-0.012,1.0356,-6.1298,0.687,-3.5344,0,0,0
0.0793,-0.011,1.0271,-5.4122,0.5649,-3.5573,0,0,0
0.0781,-0.0168,1.0183,-4.916,0.4122,-3.1756,0,0,0
0.0806,-0.0193,1.0059,-4.626,-0.5802,-2.6183,0,0,0
0.0864,-0.0186,1.0059,-4.6947,-1.5802,-2.2061,0,0,0
0.0823,-0.0208,1.0073,-5.0763,-2.0229,-1.6107,0,0,0
0.0879,-0.0151,1.0134,-6.4656,-3.0229,-1.2214,0,0,0
0.0872,-0.0181,1.0303,-6.8092,-2.0076,-0.2443,0,0,0
0.0867,-0.0137,1.0356,-6.7405,-1.1908,0.084,0,0,0
0.0811,-0.0073,1.0281,-5.458,-0.8092,0.4351,0,0,0
0.0869,0.0056,1.0317,-3.458,-1.771,0.2137,0,0,0
0.0801,0.0115,1.022,-1.9313,-2.9618,-0.2977,0,0,0
0.0879,0.012,1.0195,-1.2366,-3.7634,-1.7176,0,0,0
0.0903,0.0095,1.0142,-1.5496,-4.084,-2.5649,0,0,0
0.0847,0.01,1.0295,-2.3588,-3.6107,-3.2366,0,0,0
0.0862,0.0059,1.0322,-3.5649,-2.7023,-2.7176,0,0,0
0.0784,0.0007,1.0442,-5.1985,-1.2595,-2.3893,0,0,0
0.0862,-0.0066,1.0491,-5.9237,-0.2366,-1.4962,0,0,0
0.0876,-0.0078,1.0432,-5.4122,0.5649,-0.8702,0,0,0
0.0859,-0.0063,1.0422,-4.0305,0.7328,-0.5954,0,0,0
0.0813,-0.0049,1.0317,-2.313,-0.3359,-1.3893,0,0,0
0.0876,-0.0039,1.031,-1.9389,-0.9542,-2.1756,0,0,0
0.092,-0.0134,1.0269,-1.9466,-1.4733,-2.1298,0,0,0
0.0938,-0.0164,1.0266,-2.313,-1.5725,-1.9847,0,0,0
0.0925,-0.0129,1.0342,-2.6489,-1.3969,-1.5496,0,0,0
0.092,-0.0144,1.0349,-2.7176,-0.5878,-1.5802,0,0,0
0.0857,-0.0083,1.0312,-2.1374,0.1756,-1.6412,0,0,0
0.0854,-0.0115,1.0261,-1.0153,0.5496,-1.7023,0,0,0
0.082,-0.0066,1.0042,0.3206,0.5878,-1.8321,0,0,0
0.0771,-0.0093,0.9985,1.3053,-0.5954,-1.7786,0,0,0
0.0754,-0.011,0.991,1.6107,-2.0382,-2.2061,0,0,0
0.0789,-0.0149,0.998,0.916,-3.4962,-1.9466,0,0,0
0.0764,-0.0164,1.0095,-0.9084,-4.0992,-1.2901,0,0,0
0.0811,-0.0186,1.0171,-2.313,-3.687,-0.4427,0,0,0
0.0806,-0.0173,1.041,-3.8092,-2.2595,0.6489,0,0,0
0.0813,-0.0098,1.0474,-4.2137,-0.9008,1.5878,0,0,0
0.0847,-0.0095,1.0515,-3.3664,-0.2137,2.1756,0,0,0
0.092,-0.0063,1.0476,-2.145,0.2519,1.8626,0,0,0
0.0864,0.0068,1.033,-1.0763,-0.229,0.4962,0,0,0
0.0896,0.0044,1.0366,0.0687,-1.0992,-1.4198,0,0,0
0.0886,-0.0098,1.0303,0.3282,-1.6412,-2.8015,0,0,0
0.0796,-0.0144,1.0325,0.626,-2.1832,-2.458,0,0,0
0.0798,-0.0176,1.0361,1.1832,-3.1679,-1.6107,0,0,0
0.084,-0.0105,1.0374,1.9924,-3.8702,-0.0229,0,0,0
0.0859,0.0046,1.0425,2.2214,-3.6641,0.4198,0,0,0
0.0955,0.0161,1.0481,1.9466,-2.4962,0.6412,0,0,0
0.1042,0.0215,1.0466,1.3359,-0.9237,0.0,0,0,0
0.1018,0.0286,1.0469,0.5115,0.6183,-0.9313,0,0,0
0.0938,0.0273,1.0251,0.1985,1.6794,-2.4809,0,0,0
0.0908,0.0144,1.0007,-0.0687,0.9618,-3.8931,0,0,0
0.085,0.0085,0.9917,0.0305,-0.4656,-4.1145,0,0,0
0.0791,-0.0005,0.9861,0.6336,-2.1756,-3.7863,0,0,0
0.0796,-0.0005,1.001,0.8015,-3.458,-2.5573,0,0,0
0.0857,0.0046,1.0105,0.8168,-3.6947,-0.9847,0,0,0
0.0947,0.0088,1.0249,0.0916,-3.145,-0.2672,0,0,0
0.0974,0.0129,1.0371,-0.5802,-1.4427,-0.1298,0,0,0
0.0999,0.012,1.0291,-1.0611,-0.7481,-0.1145,0,0,0
0.1062,0.0085,1.0264,-1.1145,-0.5344,-0.3359,0,0,0
0.1045,0.0122,1.0215,-0.9618,-0.8397,-0.4962,0,0,0
0.105,0.0195,1.0691,-1.5191,-0.771,-1.6641,0,0,0
0.1113,0.0002,1.0508,-2.4046,0.5725,-1.542,0,0,0
0.1021,0.002,1.0364,-3.3435,2.0611,-1.8015,0,0,0
0.0977,-0.0103,1.0303,-4.0458,2.626,-1.9389,0,0,0
0.0928,-0.0161,1.0288,-3.1908,2.2901,-2.1908,0,0,0
0.0854,-0.0154,1.0222,-1.2214,1.3664,-2.3664,0,0,0
0.0911,-0.0403,1.0569,1.7328,0.3893,-2.3282,0,0,0
0.0833,-0.021,1.0439,1.6641,1.0687,-1.5954,0,0,0
0.0742,-0.0159,1.0068,3.7786,0.7939,-1.4504,0,0,0
0.0764,-0.0051,1.0195,3.3435,-0.8015,-2.0,0,0,0
0.0818,-0.0073,1.022,3.2061,-1.9008,-2.0382,0,0,0
0.0828,-0.0022,1.0361,3.2061,-2.5191,-1.2519,0,0,0
0.0764,0.0098,1.0249,3.4351,-3.2977,-1.1756,0,0,0
0.0906,0.009,1.0195,3.9313,-4.2748,-1.1069,0,0,0
0.0947,0.0193,1.0261,4.084,-4.855,-1.1985,0,0,0
0.0896,0.0139,1.0288,4.0916,-3.4046,-1.0916,0,0,0
0.0876,0.0154,1.0256,3.5573,-2.5573,-1.2214,0,0,0
0.0991,0.0237,1.0149,3.3511,-2.7099,-0.7099,0,0,0
0.1025,0.0344,1.0308,1.5496,-2.0,-0.5878,0,0,0
0.1035,0.0381,1.04,-0.542,-0.771,-0.6489,0,0,0
0.1067,0.0322,1.0286,-3.0382,0.6183,-0.2137,0,0,0
0.1001,0.0313,1.0217,-4.9466,1.3969,-0.229,0,0,0
0.0854,0.0332,1.0125,-7.1985,2.0076,-1.1145,0,0,0
0.0815,0.0271,1.0095,-7.145,1.6412,-2.0611,0,0,0
0.0786,0.0142,1.0259,-6.9466,1.5191,-2.542,0,0,0
0.0781,0.0027,1.0225,-5.4122,0.0763,-2.2595,0,0,0
0.0798,-0.0044,1.0334,-3.5954,-1.0229,-0.7252,0,0,0
0.0833,0.0007,1.0339,-1.7557,-1.9847,0.3282,0,0,0
0.0918,0.0081,1.0391,-1.1756,-2.4733,0.8626,0,0,0
0.0942,0.0105,1.0203,-1.1221,-2.6641,0.3664,0,0,0
0.0967,0.0212,1.0259,-0.5115,-2.313,-0.8397,0,0,0
0.0979,0.0144,1.0225,-0.7863,-1.7023,-1.6794,0,0,0
0.1035,0.0146,1.0183,-1.771,-1.5191,-1.9924,0,0,0
0.1006,0.0066,1.0107,-2.542,-0.9313,-1.3359,0,0,0
0.1021,0.0042,1.0271,-3.7405,-0.3435,-0.3817,0,0,0
0.1057,-0.0051,1.0349,-3.6031,0.4733,0.6947,0,0,0
0.0989,0.0042,1.033,-3.0916,0.8092,1.626,0,0,0
0.106,0.0007,1.0222,-1.8779,0.2977,1.687,0,0,0
0.1072,0.0132,1.0312,-1.0992,-0.4046,1.687,0,0,0
0.0996,0.0127,1.0249,-1.0687,-0.0229,1.4351,0,0,0
0.1067,0.011,1.0325,-0.7863,-0.0305,1.687,0,0,0
0.0979,0.0127,1.0361,-2.7099,0.9389,1.9466,0,0,0
0.1023,0.0061,1.0303,-3.5802,0.5878,2.6107,0,0,0
0.1025,-0.0095,1.0435,-4.2214,-1.9466,3.7099,0,0,0
0.0842,-0.0369,1.0471,-4.7099,0.2672,3.7405,0,0,0
0.0767,-0.0613,1.054,-3.8397,-0.6565,7.1374,0,0,0
0.0657,-0.0815,1.062,-4.6641,1.3359,12.7176,0,0,0
0.0596,-0.0815,1.0549,-6.4046,1.8779,20.5267,0,0,0
0.071,-0.0737,1.0696,-8.1145,3.3359,28.2748,0,0,0
0.0769,-0.0437,1.0676,-7.8855,4.9313,34.1221,0,0,0
0.0916,-0.0496,1.0527,-7.2748,5.4504,38.3282,0,0,0
0.0884,-0.0251,1.0439,-7.626,4.5191,40.1985,0,0,0
0.0945,-0.0513,1.0066,-7.9542,3.6718,41.0382,0,0,0
0.0757,-0.0247,1.0037,-10.313,1.1985,43.4733,0,0,0
0.0886,-0.0366,1.0081,-13.2519,-1.6718,45.5878,0,0,0
0.0898,-0.032,1.0193,-16.8244,-0.7176,48.8473,0,0,0
0.0906,-0.0361,1.0398,-21.4351,1.9618,50.8702,0,0,0
0.0791,-0.0378,1.0344,-26.2061,4.4809,52.2366,0,0,0
0.0723,-0.042,1.0193,-31.2672,5.8855,53.4351,0,0,0
0.0796,-0.0579,1.0261,-34.0076,4.7939,57.0076,0,0,0
0.0833,-0.0664,1.0298,-33.8855,4.0916,61.7939,0,0,0
0.0789,-0.0535,1.0242,-31.6107,1.9237,65.4198,0,0,0
0.0745,-0.0667,1.0254,-29.2443,-1.9771,66.145,0,0,0
0.0601,-0.0972,1.0339,-24.4122,-5.3511,65.6718,0,0,0
0.04,-0.0964,1.0266,-19.3435,-8.4351,64.2672,0,0,0
0.0608,-0.1006,1.0183,-16.2214,-11.7252,64.4886,0,0,0
0.0952,-0.0823,1.032,-13.5649,-14.2366,65.771,0,0,0
0.1248,-0.0532,1.0369,-10.7634,-15.1298,65.9618,0,0,0
0.1396,-0.0007,1.0508,-7.3435,-14.3282,61.9771,0,0,0
0.1472,0.0381,1.0576,-5.7481,-13.2137,53.2061,0,0,0
0.1536,0.0239,1.0605,-6.2366,-10.7634,42.3969,0,0,0
0.1523,-0.0093,1.0691,-6.2366,-7.4733,31.9084,0,0,0
0.127,-0.0544,1.0662,-5.9695,-4.4733,24.9389,0,0,0
0.125,-0.1001,1.0752,-3.1756,-1.5191,23.458,0,0,0
0.1187,-0.0947,1.0613,0.2977,2.0916,25.8168,0,0,0
0.1145,-0.0549,1.0217,2.7023,4.1985,28.0,0,0,0
0.1228,-0.0215,1.0044,4.542,4.9618,26.4275,0,0,0
0.1189,0.0173,0.9897,4.9008,4.374,19.9695,0,0,0
0.0955,0.03,0.9431,1.7099,1.5496,10.4656,0,0,0
0.0991,-0.0212,0.9597,3.6794,-0.0611,2.7863,0,0,0
0.0862,-0.0247,0.9844,3.3664,1.2061,-2.8015,0,0,0
0.0835,-0.0681,0.9827,2.6183,-0.0916,-3.2977,0,0,0
0.0767,-0.0789,1.0137,1.2824,0.0076,-2.4962,0,0,0
0.0632,-0.074,1.0295,1.5649,2.1603,-1.9618,0,0,0
0.0623,-0.0798,1.0195,0.7786,4.2366,-1.6565,0,0,0
0.0591,-0.084,1.0056,-0.4733,5.6412,-1.1374,0,0,0
0.0615,-0.093,0.9805,-1.5878,5.0763,-0.4809,0,0,0
0.0576,-0.0928,0.9727,-1.6565,2.916,-0.3206,0,0,0
0.0493,-0.0835,0.9875,-2.1298,2.0076,-0.0153,0,0,0
0.0481,-0.0957,0.9761,-1.4122,-0.2595,0.0229,0,0,0
0.0627,-0.1062,1.0117,-1.3359,-3.4656,1.3664,0,0,0
0.075,-0.0989,1.0474,-0.5267,-4.1374,2.7176,0,0,0
0.0713,-0.0803,1.0432,0.4122,-2.7863,3.3511,0,0,0
0.0732,-0.0681,1.0466,0.5878,-0.9389,3.3206,0,0,0
0.0828,-0.0686,1.0303,-0.1374,0.0916,2.6412,0,0,0
0.0842,-0.0654,1.0181,-0.771,0.2366,1.9389,0,0,0
0.0818,-0.064,1.0181,-0.6031,0.0992,1.6489,0,0,0
0.0842,-0.0637,1.0134,-0.5267,-0.9542,1.229,0,0,0
0.0779,-0.062,1.0132,0.2443,-2.0611,0.1603,0,0,0
0.0815,-0.0593,1.0085,1.1374,-3.1985,-0.5267,0,0,0
0.0837,-0.0564,1.0239,1.2977,-3.9084,-1.0458,0,0,0
0.0869,-0.0649,1.0229,0.9771,-3.7786,-1.4885,0,0,0
0.0757,-0.0732,1.0317,1.0992,-3.1603,-1.6794,0,0,0
0.0779,-0.0808,1.0242,0.9389,-2.8321,-0.8702,0,0,0
0.0806,-0.0811,1.0305,-0.1527,-2.0305,0.8321,0,0,0
0.085,-0.0725,1.0403,-1.2061,-0.5496,2.2061,0,0,0
0.0835,-0.0647,1.0352,-2.084,1.0687,2.5115,0,0,0
0.0859,-0.0493,1.0342,-2.5573,2.3969,1.7023,0,0,0
0.0811,-0.0564,1.0066,-1.9924,1.4351,0.3435,0,0,0
0.0884,-0.0588,0.9932,-1.8168,-0.3511,-0.771,0,0,0
0.0774,-0.0657,1.0063,-1.3893,-1.2901,-1.4809,0,0,0
0.0769,-0.0767,1.0173,-0.6107,-2.0763,-1.9695,0,0,0
0.0769,-0.0815,1.0129,-0.4962,-2.0992,-1.0458,0,0,0
0.0735,-0.0732,1.0269,-0.4046,-1.4504,0.1527,0,0,0
0.0793,-0.0762,1.0103,-0.3893,-1.8702,1.3511,0,0,0
0.0896,-0.0637,1.012,-0.5344,-2.4962,1.855,0,0,0
0.0889,-0.0532,1.0149,-0.7634,-2.7481,0.9695,0,0,0
0.0925,-0.0618,1.0168,-1.0382,-3.2214,-0.4656,0,0,0
0.0928,-0.0605,1.0212,-1.7557,-2.9313,-1.2977,0,0,0
0.0916,-0.0657,1.0247,-2.7634,-2.7023,-2.0153,0,0,0
0.0908,-0.0796,1.0327,-3.1603,-1.5038,-1.7634,0,0,0
0.0823,-0.0796,1.0217,-3.1908,-1.3206,-0.4962,0,0,0
0.0811,-0.0837,1.0254,-2.2824,-1.7634,-0.0382,0,0,0
0.0764,-0.0774,1.0344,-1.0305,-2.4885,0.3969,0,0,0
0.0752,-0.0664,1.0396,0.0534,-2.5954,0.3206,0,0,0
0.083,-0.0657,1.0281,0.4809,-2.7023,-0.2595,0,0,0
0.0955,-0.0723,1.0334,0.4504,-3.374,-0.1298,0,0,0
0.0908,-0.0649,1.0344,-0.6489,-2.9008,0.3282,0,0,0
0.0913,-0.0659,1.0361,0.1145,-1.1756,0.6107,0,0,0
0.0911,-0.0674,1.0342,-0.3969,-0.3588,0.1832,0,0,0
0.0923,-0.0669,1.0303,-1.2061,0.3511,0.2748,0,0,0
0.0906,-0.0586,1.0217,-1.7557,0.0763,0.1603,0,0,0
0.0928,-0.0581,1.0244,-2.2748,-0.3588,-0.1527,0,0,0
0.0884,-0.05,1.0203,-1.8168,-0.4351,-0.542,0,0,0
0.0864,-0.0474,1.0264,-1.1298,-0.1985,-1.916,0,0,0
0.0903,-0.0413,1.0193,-0.5802,0.0305,-3.8168,0,0,0
0.0828,-0.0391,1.0137,0.1985,-0.3511,-5.7481,0,0,0
0.0854,-0.0413,1.0144,0.9313,-0.8321,-7.9313,0,0,0
0.0906,-0.0435,1.0151,2.084,-2.374,-10.0611,0,0,0
0.0918,-0.0344,1.0151,2.5496,-3.2824,-12.4656,0,0,0
0.095,-0.0205,1.02,5.1069,-3.7557,-15.2366,0,0,0
0.1089,0.0007,1.0305,7.0534,-4.2443,-19.4198,0,0,0
0.1255,0.0208,1.0408,7.4809,-3.5344,-24.8626,0,0,0
0.1543,0.0293,1.072,7.8092,-1.5038,-31.6031,0,0,0
0.1646,0.041,1.1028,7.5038,2.6794,-39.6183,0,0,0
0.1626,0.0186,1.1282,6.771,8.8244,-46.771,0,0,0
0.1465,0.0007,1.1355,5.9008,15.626,-51.4122,0,0,0
0.1306,-0.0449,1.1265,8.0229,21.6794,-52.4885,0,0,0
0.1169,-0.0425,1.1257,10.7405,27.458,-51.6031,0,0,0
0.106,-0.0442,1.1331,11.4427,33.8626,-49.0763,0,0,0
0.0957,-0.033,1.1235,11.7099,40.0611,-47.5573,0,0,0
0.085,-0.022,1.0776,10.8321,44.6183,-46.916,0,0,0
0.0845,-0.0193,1.0464,11.0229,47.0687,-46.229,0,0,0
0.0779,-0.0239,1.0103,7.3969,47.9084,-46.4427,0,0,0
0.0681,-0.0283,0.9839,4.8779,47.2977,-46.5649,0,0,0
0.0615,-0.0486,0.9785,1.6947,44.8473,-46.084,0,0,0
0.033,-0.0647,0.989,-0.9542,41.4809,-43.7481,0,0,0
0.0015,-0.0747,1.0061,-2.5115,38.0382,-40.771,0,0,0
-0.0283,-0.085,1.0334,-2.374,36.6183,-37.0763,0,0,0
-0.0247,-0.0955,1.032,-1.2977,34.8473,-32.6031,0,0,0
-0.0239,-0.0894,1.0488,-0.0382,34.4885,-27.1527,0,0,0
-0.0247,-0.0693,1.0527,0.1221,34.916,-23.1298,0,0,0
-0.0203,-0.0569,1.0417,0.6031,35.6489,-21.0153,0,0,0
-0.0332,-0.0442,1.0361,2.3817,36.9084,-21.0229,0,0,0
-0.0439,-0.0496,1.0063,4.2519,36.4198,-21.3053,0,0,0
-0.0498,-0.0537,0.9929,5.3435,34.2672,-20.6489,0,0,0
-0.0532,-0.0557,0.9851,5.7405,31.5649,-18.8779,0,0,0
-0.0496,-0.0479,0.9763,4.8397,28.3969,-16.4733,0,0,0
-0.0605,-0.0391,0.9888,3.8473,26.4427,-14.5115,0,0,0
-0.0623,-0.0271,0.9812,3.5649,24.6107,-13.626,0,0,0
-0.0667,-0.0125,0.9868,2.916,23.1832,-14.2748,0,0,0
-0.0684,-0.0142,0.99,2.7099,21.5496,-15.5878,0,0,0
-0.0767,-0.0183,0.9824,2.9008,20.3969,-16.313,0,0,0
-0.083,-0.0291,0.9929,3.0153,18.1145,-16.2748,0,0,0
-0.093,-0.031,0.9939,3.1756,16.0305,-15.5496,0,0,0
-0.0974,-0.0459,0.9856,3.1145,14.0687,-13.6489,0,0,0
-0.1028,-0.0459,0.9878,2.6031,11.3359,-12.1145,0,0,0
-0.1096,-0.0447,1.0166,2.5954,10.6412,-10.9237,0,0,0
-0.1074,-0.0439,1.0278,2.7176,11.3359,-10.1145,0,0,0
-0.106,-0.0437,1.0403,1.0382,12.6336,-8.374,0,0,0
-0.0999,-0.0447,1.0388,-0.1145,13.916,-6.4656,0,0,0
-0.1111,-0.0403,1.0273,-0.145,14.8321,-4.7328,0,0,0
-0.114,-0.0315,0.9958,0.1832,13.5191,-3.5802,0,0,0
-0.1179,-0.0217,0.9834,0.4733,10.6107,-3.1221,0,0,0
-0.124,-0.0061,0.99,1.2061,7.855,-3.5344,0,0,0
-0.1162,-0.0078,0.9895,1.1527,5.2748,-4.1756,0,0,0
-0.1067,-0.0083,1.0022,1.1069,3.1145,-4.1908,0,0,0
-0.105,-0.0005,1.0066,1.9313,2.0534,-4.5191,0,0,0
-0.0994,0.011,1.0178,1.3359,1.8702,-5.687,0,0,0
-0.0974,0.0225,1.0142,0.7176,1.8015,-7.7099,0,0,0
-0.1001,0.02,1.0164,0.145,2.3817,-10.2824,0,0,0
-0.1101,0.0291,1.0115,-0.4122,3.1298,-12.9237,0,0,0
-0.1064,0.0193,1.0061,-1.5038,2.9695,-15.1298,0,0,0
-0.1086,0.0132,1.001,-2.0076,1.7023,-16.2443,0,0,0
-0.1057,0.0171,1.0005,-1.771,0.145,-17.3969,0,0,0
-0.0991,0.0374,1.0093,-0.0763,-1.9618,-19.8779,0,0,0
-0.0789,0.0515,1.0266,1.6794,-3.1756,-24.229,0,0,0
-0.0642,0.0654,1.0364,3.1298,-2.5496,-28.9618,0,0,0
-0.0559,0.0745,1.0437,3.4275,-0.9313,-34.4809,0,0,0
-0.0564,0.072,1.0493,3.0229,1.0992,-39.458,0,0,0
-0.0513,0.0693,1.0647,2.0763,4.1298,-43.084,0,0,0
-0.0432,0.0723,1.0818,-0.4427,7.3511,-46.2519,0,0,0
-0.0378,0.072,1.1011,-2.687,12.2214,-47.9695,0,0,0
-0.0464,0.0618,1.0801,-3.2214,16.5802,-49.5496,0,0,0
-0.0505,0.0588,1.0642,-2.6412,19.5802,-51.0,0,0,0
-0.064,0.0688,1.0457,-2.9313,20.7176,-53.3664,0,0,0
-0.0703,0.0544,1.0439,-2.2214,21.4962,-57.0992,0,0,0
-0.0857,0.0471,1.0405,-1.1069,22.855,-61.4504,0,0,0
-0.0947,0.0315,1.0315,1.2595,23.4809,-64.7634,0,0,0
-0.0999,0.0144,1.0205,3.1985,23.9695,-66.9313,0,0,0
-0.1108,-0.0125,0.9956,3.5954,23.7023,-66.5496,0,0,0
-0.1311,-0.0305,1.0103,3.3817,23.2977,-65.4657,0,0,0
-0.1548,-0.0515,1.0,3.2443,23.7176,-63.8779,0,0,0
-0.1729,-0.0686,0.9922,2.7786,23.313,-61.5267,0,0,0
-0.1929,-0.0771,0.9766,0.6718,21.6336,-58.0458,0,0,0
-0.2007,-0.0776,0.9915,-2.8321,21.0763,-53.3359,0,0,0
-0.2002,-0.0811,0.9976,-5.4656,20.855,-49.1756,0,0,0
-0.198,-0.0867,0.9873,-7.5191,21.084,-45.3817,0,0,0
-0.2026,-0.0854,0.9866,-7.8397,21.4733,-43.1069,0,0,0
-0.2144,-0.0962,0.98,-7.5344,20.3664,-41.3511,0,0,0
-0.2236,-0.0962,0.9648,-5.5878,18.3893,-39.7405,0,0,0
-0.2412,-0.1172,0.9619,-4.8244,15.313,-37.5878,0,0,0
-0.2456,-0.1323,0.947,-4.5496,10.4427,-34.313,0,0,0
-0.2473,-0.1404,0.9658,-5.374,6.1069,-29.7481,0,0,0
-0.2561,-0.1602,0.9973,-4.8092,4.1603,-24.458,0,0,0
-0.2532,-0.1616,1.01,-4.9542,4.1221,-18.7863,0,0,0
-0.2454,-0.1636,1.0164,-4.2519,4.7328,-12.9389,0,0,0
-0.2368,-0.1482,0.9939,-3.0305,3.8015,-7.4809,0,0,0
-0.2324,-0.1411,0.9937,-1.9695,2.3969,-4.2137,0,0,0
-0.2339,-0.1331,0.9851,0.084,0.5802,-2.4351,0,0,0
-0.2417,-0.1335,0.9626,2.6565,-2.3053,-0.8779,0,0,0
-0.2395,-0.1331,0.9531,4.5191,-6.1832,0.9389,0,0,0
-0.2385,-0.1306,0.9504,5.0687,-10.9237,3.6718,0,0,0
-0.2278,-0.1299,0.9397,5.0534,-14.7328,7.3817,0,0,0
-0.2236,-0.1213,0.9409,4.2748,-18.0076,11.4656,0,0,0
-0.2151,-0.1311,0.9397,3.8626,-20.687,15.542,0,0,0
-0.2173,-0.1177,0.9207,2.6107,-25.1985,18.6031,0,0,0
-0.2187,-0.0989,0.8894,2.3206,-31.7328,21.7634,0,0,0
-0.2051,-0.0908,0.9214,3.1374,-38.2672,24.2901,0,0,0
-0.1973,-0.1086,0.9407,1.8702,-42.3969,26.9084,0,0,0
-0.199,-0.1047,0.9536,1.6947,-44.2672,29.7939,0,0,0
-0.1921,-0.1125,0.967,-0.3817,-45.916,34.6718,0,0,0
-0.1648,-0.1047,0.9814,-2.3817,-46.0687,40.0,0,0,0
-0.1538,-0.1016,0.968,-4.6641,-46.6183,44.9924,0,0,0
-0.1428,-0.0754,0.9314,-5.374,-49.1985,49.3893,0,0,0
-0.1138,-0.0796,0.9128,-6.6489,-54.5573,52.2977,0,0,0
-0.0999,-0.0483,0.9597,-7.3435,-58.8168,53.3969,0,0,0
-0.0916,-0.0503,1.0354,-9.145,-58.7176,51.9847,0,0,0
-0.0701,-0.0303,1.0969,-9.3969,-55.2748,51.0992,0,0,0
-0.0532,-0.0667,1.1013,-8.626,-48.7481,50.6718,0,0,0
-0.0391,-0.0493,1.0845,-6.5038,-43.0611,52.0763,0,0,0
-0.0247,-0.0366,1.0813,-5.0382,-39.8092,52.5649,0,0,0
-0.0088,-0.0115,1.0798,-2.8321,-36.0229,50.8397,0,0,0
-0.0012,0.0,1.0811,0.9313,-32.9008,47.7405,0,0,0
0.0073,0.0066,1.0718,3.6183,-31.1298,43.855,0,0,0
0.0061,0.0042,1.0483,5.3359,-31.2061,40.7863,0,0,0
0.0107,0.0156,1.0615,6.0687,-31.5344,37.8702,0,0,0
0.0146,0.0093,1.0742,6.9237,-30.4656,35.6641,0,0,0
0.0242,0.0161,1.0813,6.8015,-28.5496,33.9618,0,0,0
0.04,0.009,1.0884,6.916,-25.5267,33.1756,0,0,0
0.0427,0.0103,1.0886,6.5191,-22.6718,32.3588,0,0,0
0.0344,0.0195,1.0825,7.2443,-20.1374,30.6412,0,0,0
0.0405,0.03,1.0818,7.1908,-17.4809,28.3893,0,0,0
0.0437,0.0288,1.0874,5.8473,-15.3969,26.458,0,0,0
0.0461,0.0271,1.0857,4.5115,-12.9695,25.3893,0,0,0
0.053,0.0366,1.0925,3.6412,-11.0153,23.8779,0,0,0
0.0605,0.0391,1.0884,2.1298,-8.2061,21.916,0,0,0
0.0608,0.0422,1.0918,2.4046,-5.4046,18.8855,0,0,0
0.0562,0.0291,1.0801,3.4198,-3.3511,15.7099,0,0,0
0.0344,0.0364,1.0701,5.8473,-2.3664,12.3435,0,0,0
0.0247,0.0239,1.041,8.0534,-2.9237,9.3817,0,0,0
0.0271,-0.0005,1.0286,9.9847,-4.5802,8.916,0,0,0
0.022,-0.012,1.0479,11.2137,-5.229,10.4885,0,0,0
0.0107,0.0005,1.0562,11.5573,-3.9847,11.7099,0,0,0
0.0098,0.0088,1.0518,10.4962,-1.7557,13.0611,0,0,0
0.0166,0.0054,1.0483,8.0992,0.6565,14.4656,0,0,0
0.0203,0.0068,1.0554,5.8168,2.7863,16.1298,0,0,0
0.0132,0.0098,1.04,3.8397,5.3206,17.5725,0,0,0
0.0161,0.009,1.0051,2.6031,5.9389,18.626,0,0,0
0.0256,0.0129,1.0024,2.2366,4.3893,18.8626,0,0,0
0.0168,0.0364,1.0054,2.9237,3.7023,17.4198,0,0,0
0.0151,0.0405,0.991,2.5191,1.8473,14.9847,0,0,0
0.0295,0.0381,0.9824,2.9771,-0.9771,13.1527,0,0,0
0.0237,0.041,1.0017,3.0305,-3.7863,10.8931,0,0,0
0.0239,0.0491,1.0212,2.7176,-4.3206,8.5191,0,0,0
0.0288,0.0425,1.042,2.145,-3.1679,6.4809,0,0,0
0.0303,0.04,1.0449,1.3969,-0.5573,4.1985,0,0,0
0.0269,0.041,1.03,0.4351,1.1069,2.8015,0,0,0
0.0269,0.0344,1.0361,0.4504,1.3969,1.1603,0,0,0
0.0198,0.0391,1.0374,0.7328,1.7481,-0.4809,0,0,0
0.0085,0.0337,1.0334,1.7786,1.3588,-2.0992,0,0,0
0.0066,0.0234,1.0249,2.5344,0.1832,-2.8931,0,0,0
0.0093,0.02,1.022,3.374,-1.0229,-3.1679,0,0,0
0.0132,0.0127,1.0127,3.4046,-1.5725,-2.9084,0,0,0
0.0117,0.0168,1.0239,2.771,-2.1221,-2.0763,0,0,0
0.0105,0.0237,1.0315,2.1527,-2.145,-1.7863,0,0,0
0.0149,0.0225,1.0344,1.916,-1.542,-1.8244,0,0,0
0.012,0.0271,1.0344,1.9618,-1.1603,-2.4122,0,0,0
0.009,0.0203,1.0444,1.3664,-0.7557,-2.9847,0,0,0
0.0117,0.02,1.0405,0.8779,-0.7786,-3.1221,0,0,0
0.0095,0.0234,1.0344,-0.229,0.2901,-2.8397,0,0,0
0.0183,0.0291,1.0327,-1.7099,0.7176,-2.2214,0,0,0
0.0176,0.0247,1.0369,-2.4885,1.5496,-1.6336,0,0,0
0.0093,0.0225,1.0417,-2.0076,2.2672,-1.0458,0,0,0
0.0154,0.0225,1.0452,-0.3511,1.7481,-1.7099,0,0,0
0.0188,0.0227,1.0596,1.6107,1.9084,-2.4046,0,0,0
0.0159,0.0308,1.0615,3.145,2.8702,-3.0305,0,0,0
0.0227,0.0359,1.0535,4.1221,3.9618,-3.6336,0,0,0
0.0212,0.0356,1.04,4.4351,4.4885,-4.542,0,0,0
0.0176,0.0305,1.0444,4.3664,4.8168,-5.9008,0,0,0
0.01,0.0342,1.0449,4.3588,5.6947,-6.7634,0,0,0
0.0083,0.0242,1.0432,4.4351,6.6107,-7.313,0,0,0
0.0024,0.0269,1.0393,5.5038,6.9847,-7.0916,0,0,0
0.0032,0.0276,1.0193,6.1908,6.5649,-7.2901,0,0,0
-0.0017,0.0322,0.9927,6.5191,5.0382,-7.4733,0,0,0
-0.0005,0.0295,0.9973,6.1908,3.2824,-7.5344,0,0,0
-0.0093,0.033,1.0076,5.855,2.5496,-8.0229,0,0,0
-0.0093,0.0286,0.9985,5.1374,2.2137,-7.7634,0,0,0
-0.0083,0.0261,1.002,4.5115,1.229,-6.2443,0,0,0
-0.0095,0.0256,1.0017,4.2672,0.3511,-4.3359,0,0,0
-0.01,0.0291,0.991,3.4275,-1.6947,-3.0,0,0,0
-0.0115,0.0376,0.9978,2.5115,-2.8244,-1.7099,0,0,0
-0.0044,0.0371,1.0159,1.3969,-3.0153,-1.4275,0,0,0
0.0024,0.04,1.0305,0.0,-1.916,-0.1679,0,0,0
0.0049,0.0598,1.0281,-1.4656,-1.0229,0.5496,0,0,0
0.01,0.0608,1.0198,-2.5267,-0.3588,0.7939,0,0,0
0.0132,0.0552,1.0242,-3.1756,-0.0153,0.3206,0,0,0
0.0107,0.0579,1.0308,-3.2672,-0.4733,-0.9389,0,0,0
0.0103,0.05,1.0383,-2.8168,-1.1221,-2.2443,0,0,0
0.0037,0.0452,1.0317,-1.4046,-1.9695,-2.3969,0,0,0
0.0073,0.0469,1.0325,-0.6031,-2.6336,-2.374,0,0,0
0.0017,0.052,1.0432,0.6412,-2.4733,-2.313,0,0,0
0.0037,0.0466,1.0479,0.6565,-1.5344,-2.5191,0,0,0
0.009,0.043,1.052,-0.8168,-0.5115,-2.458,0,0,0
-0.0017,0.0447,1.0393,-1.229,0.9542,-2.2443,0,0,0
-0.0059,0.0393,1.0271,-2.229,1.374,-1.7481,0,0,0
-0.001,0.0259,1.0369,-3.0992,0.8473,-1.4427,0,0,0
-0.0107,0.0352,1.0396,-2.3817,1.2672,-0.4351,0,0,0
-0.0122,0.0266,1.0381,-1.7939,1.3282,0.1832,0,0,0
-0.0042,0.0178,1.0378,-1.3206,1.084,1.1145,0,0,0
-0.0051,0.0166,1.0364,-1.2595,0.7939,2.9924,0,0,0
-0.0088,0.0217,1.0369,-0.771,1.2214,4.7023,0,0,0
-0.0122,0.0173,1.0408,-1.3359,1.3053,5.0763,0,0,0
-0.0176,0.0034,1.0347,-3.1145,1.9084,6.7939,0,0,0
-0.0273,-0.0144,1.0403,-4.2901,2.6031,9.4504,0,0,0
-0.0308,-0.0273,1.0374,-6.0458,3.4733,14.1298,0,0,0
-0.0264,-0.0164,1.0483,-7.8702,4.8015,19.3511,0,0,0
-0.0159,-0.0115,1.0667,-10.8473,7.1069,23.8168,0,0,0
-0.0203,-0.0037,1.0857,-15.374,11.9008,26.9542,0,0,0
-0.0295,-0.0161,1.0771,-18.6641,16.9771,29.2672,0,0,0
-0.0403,-0.022,1.0657,-23.3893,21.3511,31.6565,0,0,0
-0.0393,-0.0288,1.0508,-29.1832,24.3969,36.5344,0,0,0
-0.0332,-0.0251,1.074,-34.0992,27.3053,41.5725,0,0,0
-0.0386,-0.0142,1.0862,-36.6794,31.2672,44.7328,0,0,0
-0.0315,-0.0081,1.0881,-35.0611,34.4733,45.8855,0,0,0
-0.0364,-0.001,1.0723,-29.8321,36.0305,44.916,0,0,0
-0.0444,0.0139,1.0088,-24.5344,34.8855,42.6107,0,0,0
-0.0503,0.0229,0.9707,-20.458,29.3969,39.084,0,0,0
-0.0513,0.0149,0.9868,-17.6641,23.6489,36.1756,0,0,0
-0.0505,0.002,0.9976,-15.8092,18.6718,34.5725,0,0,0
-0.0674,-0.0142,1.0154,-13.9466,14.7176,33.2214,0,0,0
-0.0808,-0.0259,1.0308,-10.0305,12.4885,32.6565,0,0,0
-0.0813,-0.0229,1.0371,-6.2672,11.0916,32.687,0,0,0
-0.0776,-0.0132,1.0481,-3.5573,10.2443,33.0534,0,0,0
-0.0598,-0.0144,1.0559,-0.4427,10.2672,32.7023,0,0,0
-0.0588,-0.0076,1.0422,2.0687,10.1527,31.6947,0,0,0
-0.0647,0.0095,1.0303,4.2443,10.1908,28.8931,0,0,0
-0.0642,0.0071,1.0171,4.3206,9.9542,26.0763,0,0,0
-0.0735,0.0103,1.0032,3.3282,9.084,24.229,0,0,0
-0.0725,-0.0039,1.0081,1.2672,8.5038,23.771,0,0,0
-0.0813,0.009,1.0095,-1.0916,8.1985,23.7634,0,0,0
-0.0769,0.0144,1.0264,-2.7023,9.4122,23.9008,0,0,0
-0.071,0.0171,1.0474,-2.7176,11.0382,23.7634,0,0,0
-0.0691,0.0225,1.0305,-0.2443,13.3282,22.7939,0,0,0
-0.0752,0.0269,0.9792,1.5649,11.9847,20.5725,0,0,0
-0.0833,0.0281,0.9744,2.9618,8.1985,18.1145,0,0,0
-0.1006,0.0164,0.9854,3.8092,5.3359,15.7863,0,0,0
-0.1018,-0.0137,0.9919,3.4351,3.6565,16.0687,0,0,0
-0.1104,-0.0098,1.0273,2.0763,4.3435,17.7557,0,0,0
-0.1074,-0.0056,1.0212,-0.4198,6.7252,20.626,0,0,0
-0.094,0.0034,1.0183,-2.9389,9.2824,23.5954,0,0,0
-0.0889,0.0149,1.0325,-4.9618,11.1069,25.0076,0,0,0
-0.0952,0.0259,1.0364,-5.2977,13.5802,23.7863,0,0,0
-0.104,0.0205,1.0293,-5.0305,14.4275,21.855,0,0,0
-0.1079,0.0176,1.0225,-4.458,14.458,19.9542,0,0,0
-0.1238,0.0181,1.051,-4.2214,15.6183,18.9466,0,0,0
-0.126,0.0151,1.0518,-5.5038,17.1679,18.4275,0,0,0
-0.1252,0.011,1.0544,-7.7023,19.5267,19.313,0,0,0
-0.1145,-0.001,1.0732,-9.8626,22.2824,20.7481,0,0,0
-0.1089,0.0002,1.0801,-11.4656,26.2824,21.4504,0,0,0
-0.1152,0.0134,1.0769,-12.6794,29.8702,20.3588,0,0,0
-0.1282,0.0088,1.0894,-11.3511,33.2824,18.6489,0,0,0
-0.1421,0.0166,1.1084,-8.0076,36.4733,16.145,0,0,0
-0.1445,0.0037,1.0862,-3.3588,38.4275,14.9084,0,0,0
-0.1489,0.0066,1.0376,0.9084,38.0916,13.1145,0,0,0
-0.1599,-0.002,0.9888,4.7634,35.3511,11.2214,0,0,0
-0.1812,-0.0142,0.9675,6.1908,31.4046,10.3893,0,0,0
-0.1965,-0.032,0.988,7.7328,26.1603,10.8244,0,0,0
-0.1973,-0.0317,1.0315,6.542,25.5878,11.9008,0,0,0
-0.1958,-0.0281,1.0579,4.458,27.6031,14.7939,0,0,0
-0.1985,-0.0178,1.0374,1.7328,30.4198,17.374,0,0,0
-0.1892,0.0039,1.0286,1.1908,32.7557,19.0611,0,0,0
-0.1921,0.0178,1.0217,0.5038,34.8015,18.4046,0,0,0
-0.2075,0.0105,1.0107,-0.8931,36.5115,17.1221,0,0,0
-0.2231,0.0242,1.0242,-0.771,38.6718,15.2061,0,0,0
-0.2219,-0.009,0.9861,-3.0382,38.9466,15.5649,0,0,0
-0.2219,0.0139,0.9604,-4.4885,36.9847,18.0076,0,0,0
-0.2175,0.0371,0.9465,-5.8473,34.2366,18.9542,0,0,0
-0.2195,0.0598,0.9265,-4.7481,29.8931,17.4504,0,0,0
-0.22,0.0828,0.9136,-1.4733,24.2824,12.5878,0,0,0
-0.2217,0.0938,0.8911,1.8168,16.4504,6.7786,0,0,0
-0.2368,0.0962,0.8674,5.458,6.7099,-0.0229,0,0,0
-0.2429,0.0925,0.866,8.4351,-3.2137,-5.4962,0,0,0
-0.2437,0.0916,0.9148,10.0229,-10.9008,-9.5725,0,0,0
-0.231,0.074,0.9531,9.9466,-13.0076,-11.7023,0,0,0
-0.2166,0.0728,0.9758,8.542,-11.6947,-13.2214,0,0,0
-0.2092,0.0674,0.9888,7.0534,-9.5115,-13.8321,0,0,0
-0.2104,0.0808,0.9797,5.3893,-8.6947,-15.2748,0,0,0
-0.2034,0.0823,0.9375,6.374,-11.3435,-17.4046,0,0,0
-0.2061,0.1023,0.9358,8.0076,-17.1527,-21.5191,0,0,0
-0.1885,0.1348,0.9375,10.2443,-21.9847,-30.0153,0,0,0
-0.1699,0.1653,0.9258,14.8855,-29.5191,-40.8244,0,0,0
-0.1321,0.1897,0.9216,21.9847,-40.1145,-53.5267,0,0,0
-0.1121,0.2041,0.988,29.5114,-49.0687,-69.6183,0,0,0
-0.0977,0.188,1.0369,35.1145,-53.8244,-85.4657,0,0,0
-0.1343,0.1465,1.0981,41.1679,-49.7252,-98.145,0,0,0
-0.1294,0.0527,1.1438,45.4198,-42.7252,-103.1069,0,0,0
-0.1572,0.0212,1.1516,47.7863,-31.5954,-99.8626,0,0,0
-0.1641,-0.0027,1.1731,49.1832,-19.687,-91.5115,0,0,0
-0.168,0.0122,1.1379,46.4351,-8.4275,-81.5038,0,0,0
-0.1663,0.0332,1.106,43.9008,-0.3664,-73.5802,0,0,0
-0.1797,0.0608,1.0625,41.0153,4.7176,-70.0229,0,0,0
-0.1802,0.0837,1.0339,35.542,8.1832,-70.313,0,0,0
-0.2048,0.0405,1.0352,32.0534,11.6031,-69.9924,0,0,0
-0.24,0.011,0.9915,27.2748,14.6412,-68.3283,0,0,0
-0.2632,-0.0261,0.9712,22.0,15.374,-62.6565,0,0,0
-0.2964,-0.0295,0.9705,15.9542,14.6183,-54.0229,0,0,0
-0.2979,-0.0486,0.9812,10.7328,14.5954,-43.0,0,0,0
-0.2986,-0.0308,0.9666,5.5725,13.771,-32.3053,0,0,0
-0.2788,-0.0049,0.9536,1.5878,11.8931,-23.4122,0,0,0
-0.2539,0.0273,0.9668,-1.1221,10.0763,-18.7176,0,0,0
-0.23,0.0535,0.9722,-4.4885,8.855,-18.5878,0,0,0
-0.2354,0.0562,1.0015,-5.8092,8.8168,-20.5267,0,0,0
-0.2556,0.0317,1.0022,-4.084,8.2672,-22.2977,0,0,0
-0.2617,0.0088,0.9783,-0.5725,5.8397,-20.771,0,0,0
-0.261,-0.0032,0.968,2.8168,2.4046,-17.1908,0,0,0
-0.261,0.0129,0.9514,5.8397,-2.0687,-13.313,0,0,0
-0.2539,0.0281,0.9609,7.8702,-4.9389,-11.4351,0,0,0
-0.2461,0.0425,0.9692,8.626,-7.3969,-11.1603,0,0,0
-0.2314,0.0542,0.9875,8.4656,-7.9542,-11.3893,0,0,0
-0.2288,0.0508,0.9675,7.9084,-8.7557,-11.5878,0,0,0
-0.2229,0.0491,0.9482,7.3588,-11.313,-10.9542,0,0,0
-0.2383,0.0564,0.9631,4.229,-12.7481,-10.4656,0,0,0
-0.2429,0.0522,0.9346,2.3588,-14.6107,-8.9847,0,0,0
-0.2449,0.0393,0.916,-1.1221,-17.5191,-6.3817,0,0,0
-0.2329,0.0056,0.9021,-2.9924,-21.145,-2.9389,0,0,0
-0.2515,0.0349,0.8474,-7.9084,-25.4275,1.0382,0,0,0
-0.2603,0.0427,0.8101,-11.458,-32.458,4.7176,0,0,0
-0.2461,0.0396,0.7878,-16.3664,-41.6718,7.7939,0,0,0
-0.2312,0.0549,0.824,-21.3588,-49.7939,9.6641,0,0,0
-0.2205,0.0464,0.8848,-26.6489,-53.6489,10.1756,0,0,0
-0.179,0.0146,0.9814,-27.9313,-53.7023,11.5038,0,0,0
-0.1782,-0.0242,1.0764,-29.9466,-48.8855,14.7557,0,0,0
-0.1692,-0.0232,1.105,-24.8626,-43.5649,20.7481,0,0,0
-0.1572,-0.0112,1.125,-17.313,-38.5191,25.7023,0,0,0
-0.1348,0.0056,1.0771,-9.5725,-34.7176,28.5954,0,0,0
-0.1218,0.0393,1.019,-4.2137,-35.4809,28.5725,0,0,0
-0.1208,0.0793,0.9749,-2.1985,-38.3893,25.229,0,0,0
-0.1147,0.0718,0.9854,-3.3359,-42.2061,21.229,0,0,0
-0.0913,0.0415,1.0547,-6.2901,-42.9084,18.8473,0,0,0
-0.0862,0.03,1.1499,-8.0992,-37.9618,19.5191,0,0,0
-0.0754,0.0051,1.1731,-7.3435,-29.8931,24.0382,0,0,0
-0.054,0.0217,1.1504,-5.7557,-23.0382,29.145,0,0,0
-0.051,0.0706,1.1008,-3.3053,-18.7328,30.7557,0,0,0
-0.0532,0.0959,1.0325,-1.3053,-18.4962,28.6718,0,0,0
-0.0625,0.1157,0.9802,-0.7939,-22.229,24.6489,0,0,0
-0.0535,0.0764,0.9824,-0.771,-28.0992,21.0763,0,0,0
-0.0557,0.0942,1.0347,-0.916,-30.2977,19.2748,0,0,0
-0.041,0.073,1.0886,-1.9847,-29.1603,19.2901,0,0,0
-0.0276,0.0703,1.1379,-2.916,-23.7481,20.1298,0,0,0
-0.0149,0.0718,1.137,-4.1985,-16.0992,20.855,0,0,0
-0.0132,0.0864,1.1045,-5.4809,-8.6947,21.0611,0,0,0
-0.0134,0.0845,1.0623,-8.5496,-4.374,20.3969,0,0,0
-0.0217,0.075,0.9934,-10.0076,-5.9618,20.374,0,0,0
-0.0425,0.0642,1.0037,-9.3359,-10.3206,19.3435,0,0,0
-0.0469,0.0498,1.0166,-6.7328,-14.2137,18.6336,0,0,0
-0.0447,0.0337,1.0686,-3.458,-15.8779,19.4656,0,0,0
-0.0493,0.0208,1.0896,-2.0763,-14.4198,20.5649,0,0,0
-0.0457,0.0149,1.0996,-0.7634,-10.7786,23.3588,0,0,0
-0.0388,0.021,1.0669,-0.6107,-7.7252,26.6489,0,0,0
-0.0403,0.0354,1.0583,-1.5267,-4.9313,29.542,0,0,0
-0.0374,0.0249,1.0256,-3.2824,-3.1603,31.6107,0,0,0
-0.0391,0.0249,1.0181,-3.4809,-2.6183,33.6718,0,0,0
-0.0603,0.0251,1.0176,-5.1298,-3.2137,34.9237,0,0,0
-0.0591,0.0186,1.0212,-5.7786,-4.2672,36.771,0,0,0
-0.052,0.0122,1.022,-8.3588,-4.458,39.5267,0,0,0
-0.0381,0.0239,1.0298,-10.229,-3.9313,42.4656,0,0,0
-0.0129,0.0417,1.0493,-12.3435,-2.4809,44.1985,0,0,0
0.0015,0.053,1.0403,-14.0382,-0.3053,44.5573,0,0,0
0.0098,0.0569,1.0227,-15.0,0.2214,43.7557,0,0,0
0.0012,0.0522,1.0234,-15.7252,0.0992,41.9695,0,0,0
-0.0264,0.0398,1.0239,-14.6336,-0.2977,39.4962,0,0,0
-0.0378,0.0317,1.0186,-12.7023,-1.916,38.145,0,0,0
-0.0293,0.0298,1.0139,-13.1145,-4.8473,38.9237,0,0,0
-0.0183,0.0215,1.0129,-14.7405,-6.5802,41.7481,0,0,0
-0.0083,0.0354,1.0281,-15.9924,-6.7099,44.6107,0,0,0
0.0076,0.041,1.0352,-16.9618,-5.9695,46.0992,0,0,0
0.0076,0.0542,1.0215,-17.2366,-4.4733,44.8244,0,0,0
0.0027,0.0554,1.0168,-17.7023,-3.3053,42.9618,0,0,0
0.0066,0.0581,0.9758,-16.6565,-4.7023,41.0382,0,0,0
0.0144,0.0586,0.9543,-15.5267,-8.4122,38.313,0,0,0
0.0112,0.0742,0.9441,-13.1985,-13.771,34.1603,0,0,0
0.0144,0.071,0.9336,-11.1145,-20.145,28.9237,0,0,0
0.0205,0.0713,0.9509,-7.8015,-25.6489,23.0916,0,0,0
0.0159,0.0579,0.9995,-7.1603,-27.9924,17.5649,0,0,0
0.0208,0.0273,1.0398,-7.1832,-27.7863,15.7481,0,0,0
0.0144,0.0107,1.0676,-9.0458,-24.626,17.1679,0,0,0
0.0264,-0.001,1.0771,-10.7634,-19.8626,20.7099,0,0,0
0.0347,-0.0085,1.0754,-11.4656,-15.6107,24.0382,0,0,0
0.0337,0.0151,1.072,-10.1374,-12.0611,24.5878,0,0,0
0.0332,0.0132,1.0391,-9.916,-10.9924,23.1985,0,0,0
0.0327,-0.0022,1.0369,-8.7481,-11.8702,20.9618,0,0,0
0.0208,-0.0244,1.0537,-6.6489,-12.7328,19.6565,0,0,0
0.0059,-0.0313,1.0715,-3.9695,-12.2519,19.2366,0,0,0
0.0081,-0.0388,1.0728,-3.2061,-11.1985,21.0,0,0,0
0.0171,-0.0483,1.0779,-2.5344,-9.3969,24.2595,0,0,0
0.0239,-0.0325,1.061,-2.9237,-7.7786,27.9084,0,0,0
0.0452,-0.0095,1.0464,-3.6641,-7.6641,31.0534,0,0,0
0.0566,0.0183,1.0425,-4.5802,-7.6412,30.7252,0,0,0
0.0552,0.0173,1.0205,-5.084,-7.3511,28.8168,0,0,0
0.0435,0.0232,1.0232,-6.0611,-7.8779,26.9008,0,0,0
0.0503,0.0181,1.0107,-9.0763,-8.0382,25.8931,0,0,0
0.0579,0.0222,1.0183,-11.7863,-7.6336,25.2214,0,0,0
0.0688,0.0054,1.03,-14.5191,-6.145,24.2977,0,0,0
0.0688,0.0142,1.0417,-14.5344,-3.5649,22.4809,0,0,0
0.0667,0.0181,1.0505,-14.9466,-0.9084,20.3435,0,0,0
0.0586,0.0005,1.0449,-15.7481,1.1069,19.0458,0,0,0
0.0503,-0.0188,1.03,-16.4885,2.0992,18.8168,0,0,0
0.0452,-0.0227,1.0291,-16.7481,1.8702,18.9771,0,0,0
0.0435,-0.0229,1.0203,-17.1527,1.1908,18.6947,0,0,0
0.0405,-0.0317,1.0212,-17.5267,-0.1069,18.8092,0,0,0
0.0383,-0.0464,1.0127,-16.9237,-1.3893,20.5344,0,0,0
0.0447,-0.0344,1.0085,-14.2137,-3.4046,21.9084,0,0,0
0.053,-0.0308,1.0112,-11.1832,-5.0687,21.5954,0,0,0
0.0605,-0.0151,1.0256,-6.9771,-5.7099,19.6718,0,0,0
0.0618,-0.0083,1.0291,-5.2977,-6.542,16.6565,0,0,0
0.0671,-0.0151,1.0334,-4.2748,-7.0763,14.2443,0,0,0
0.0698,-0.0264,1.0378,-5.1679,-6.4809,12.5191,0,0,0
0.0623,-0.0381,1.022,-5.8321,-6.3053,12.4046,0,0,0
0.0491,-0.0527,1.0029,-8.9924,-6.4656,14.6489,0,0,0
0.0415,-0.0623,0.9956,-12.3588,-6.7023,17.1527,0,0,0
0.0425,-0.0562,0.9846,-14.5496,-7.4656,20.4504,0,0,0
0.0586,-0.0547,0.9971,-15.8321,-8.5878,21.3664,0,0,0
0.075,-0.0344,1.0212,-15.7099,-8.6794,20.2595,0,0,0
0.0876,-0.0186,1.061,-14.6718,-7.7786,16.7405,0,0,0
0.093,0.0015,1.0989,-10.7863,-4.6336,12.0687,0,0,0
0.0952,0.0154,1.0959,-7.2977,-1.9008,5.5802,0,0,0
0.0989,0.0286,1.1035,-4.5344,1.2595,-0.0916,0,0,0
0.1143,0.0276,1.0757,-2.2443,3.0305,-4.9008,0,0,0
0.1128,0.0361,1.0786,0.687,3.6336,-10.4504,0,0,0
0.1045,0.0444,1.0793,4.5496,3.6107,-17.1756,0,0,0
0.1011,0.0474,1.0796,8.0763,3.4656,-24.7328,0,0,0
0.106,0.0334,1.075,10.626,4.4427,-31.0305,0,0,0
0.1165,0.022,1.0613,12.3435,4.5115,-36.7634,0,0,0
0.1328,0.0212,1.0879,12.7405,6.0153,-42.7557,0,0,0
0.1299,0.0117,1.1477,14.1221,10.626,-48.771,0,0,0
0.1223,0.0139,1.1794,15.8779,17.9771,-55.3359,0,0,0
0.1328,0.0061,1.1909,19.1298,26.0076,-60.458,0,0,0
0.1238,0.0154,1.1868,21.6031,33.9695,-63.8244,0,0,0
0.1133,0.0193,1.1426,23.6336,39.8931,-66.2366,0,0,0
0.1006,0.033,1.1199,24.771,43.3588,-68.229,0,0,0
0.0881,0.0547,1.116,25.5573,45.1603,-70.6794,0,0,0
0.0774,0.0437,1.0994,27.0153,45.8702,-72.6718,0,0,0
0.0762,0.0305,1.0879,28.8397,46.2672,-73.4809,0,0,0
0.0588,0.032,1.0747,31.0611,46.7405,-74.5649,0,0,0
0.051,0.0408,1.0488,32.145,46.771,-76.6641,0,0,0
0.0359,0.0461,1.043,33.1603,46.5649,-79.8397,0,0,0
0.0164,0.0479,1.0349,32.3893,48.1527,-83.4886,0,0,0
-0.0039,0.0371,1.0,30.1679,49.3664,-86.4886,0,0,0
-0.0315,0.0247,0.9624,27.5725,49.4733,-87.542,0,0,0
-0.0571,0.0042,0.9482,27.1527,49.145,-85.2137,0,0,0
-0.0847,-0.0168,0.9075,28.084,45.6794,-81.8092,0,0,0
-0.0957,-0.0107,0.9087,29.8397,39.9237,-78.4428,0,0,0
-0.1104,-0.0085,0.9065,30.1603,32.8626,-74.8473,0,0,0
-0.1047,-0.0105,0.9456,28.0534,25.8244,-70.9084,0,0,0
-0.0994,0.0029,0.9958,26.8321,23.9008,-67.6565,0,0,0
-0.0911,-0.0012,1.0029,23.9008,24.1221,-64.9771,0,0,0
-0.0962,0.0283,1.0107,21.9237,26.4351,-62.9084,0,0,0
-0.1028,0.0352,1.0005,18.7405,28.8473,-61.4046,0,0,0
-0.1079,0.0327,0.9973,14.8779,29.0611,-60.3817,0,0,0
-0.126,0.0393,1.0344,13.3969,30.4962,-59.0076,0,0,0
-0.1355,0.0361,1.0227,12.0,32.2137,-58.6336,0,0,0
-0.1384,0.0254,1.0315,11.6489,33.0153,-57.084,0,0,0
-0.1465,0.022,1.0234,10.8931,34.3664,-54.6641,0,0,0
-0.1609,0.0134,1.0222,11.084,35.0305,-51.5954,0,0,0
-0.1575,-0.0173,1.0171,12.9618,34.9771,-47.5038,0,0,0
-0.1787,0.0056,0.9978,10.7557,32.4198,-44.2748,0,0,0
-0.2019,0.0222,0.9883,9.4885,29.1985,-41.6107,0,0,0
-0.2122,0.0168,0.9951,7.0229,26.4198,-39.3588,0,0,0
-0.2122,0.0115,1.0081,6.0916,25.3053,-35.9771,0,0,0
-0.2151,0.0168,1.0212,5.4351,25.8779,-32.8626,0,0,0
-0.2205,0.0295,1.0054,4.145,27.2061,-30.0916,0,0,0
-0.2285,0.0305,1.0015,3.5267,28.1756,-28.2595,0,0,0
-0.2324,0.0349,0.9844,3.8779,27.6412,-26.2519,0,0,0
-0.2383,0.0063,0.9722,5.2366,25.5267,-24.2824,0,0,0
-0.2544,0.0168,0.969,4.5878,23.2672,-23.458,0,0,0
-0.2659,0.0132,0.949,5.2824,20.0763,-21.0534,0,0,0
-0.2693,0.0149,0.9595,4.4656,16.5267,-18.1069,0,0,0
-0.2769,0.0173,0.97,4.3893,14.7099,-14.3969,0,0,0
-0.2695,0.0166,0.9839,4.0229,13.6031,-10.8015,0,0,0
-0.2637,0.0254,0.9851,2.9313,14.1069,-7.7634,0,0,0
-0.2622,0.0378,0.9851,0.9771,15.4809,-5.7099,0,0,0
-0.269,0.033,0.9646,-0.5802,15.374,-4.2901,0,0,0
-0.2698,0.04,0.969,-1.7099,14.0305,-2.7863,0,0,0
-0.2795,0.0386,0.9463,-3.4351,11.8321,-1.0458,0,0,0
-0.2722,0.043,0.9602,-3.9237,9.7863,1.0382,0,0,0
-0.2629,0.0479,0.9719,-4.5191,8.5496,2.9008,0,0,0
-0.2537,0.0596,0.9844,-4.3435,8.0763,3.8168,0,0,0
-0.2534,0.0693,0.9902,-3.6412,8.771,3.2061,0,0,0
-0.2537,0.0713,0.9963,-2.5344,9.542,2.0534,0,0,0
-0.2529,0.0684,0.9866,-1.4733,9.374,1.458,0,0,0
-0.2646,0.0681,0.9714,-0.7252,8.145,1.626,0,0,0
-0.2717,0.0789,0.9553,-0.3817,6.4962,1.6489,0,0,0
-0.2732,0.0701,0.9641,-0.8855,4.4885,1.7557,0,0,0
-0.2742,0.0701,0.9519,-2.542,4.0992,2.2595,0,0,0
-0.271,0.0728,0.9644,-4.3969,3.916,3.1756,0,0,0
-0.2737,0.0723,0.9741,-5.8168,3.5725,4.4885,0,0,0
-0.281,0.0808,0.9778,-6.4656,3.7252,5.4809,0,0,0
-0.2749,0.0859,0.9573,-5.2824,2.2901,5.9542,0,0,0
-0.2681,0.0942,0.9548,-3.4656,0.542,5.6336,0,0,0
-0.2688,0.1057,0.9604,-1.687,-1.0763,4.3893,0,0,0
-0.2634,0.1143,0.9812,-1.3588,-1.4809,2.0992,0,0,0
-0.2534,0.1079,0.9846,-0.8244,-0.8702,0.3588,0,0,0
-0.2571,0.1062,0.9834,-0.4656,-0.1908,-0.626,0,0,0
-0.2576,0.0986,1.0005,-0.2214,0.626,-1.7939,0,0,0
-0.2542,0.1023,1.0034,0.1374,1.0382,-2.8473,0,0,0
-0.2617,0.1042,1.0051,0.3588,1.9542,-4.1832,0,0,0
-0.2595,0.0959,1.0085,-0.1145,2.7405,-5.2672,0,0,0
-0.2607,0.0918,0.9961,-0.8855,3.9313,-5.6183,0,0,0
-0.2695,0.0854,0.9768,-1.2595,4.5954,-5.7863,0,0,0
-0.282,0.0793,0.9751,-1.6641,3.8397,-5.8626,0,0,0
-0.2769,0.0642,0.9629,-1.145,2.4275,-5.2977,0,0,0
-0.2822,0.0669,0.9661,-0.5191,0.7939,-4.6718,0,0,0
-0.2964,0.0605,0.9631,-0.7099,-0.4427,-4.458,0,0,0
-0.2864,0.0488,0.9666,-1.1832,-1.5115,-3.6641,0,0,0
-0.2776,0.0388,0.9919,-1.6107,-1.2061,-1.4198,0,0,0
-0.2876,0.0396,0.98,-1.3664,0.0229,0.5115,0,0,0
-0.2834,0.0415,0.949,-1.084,-0.8702,2.8168,0,0,0
-0.2815,0.0383,0.9473,-1.6183,-3.7099,4.3969,0,0,0
-0.2944,0.0408,0.9441,-2.6107,-6.5191,5.0534,0,0,0
-0.302,0.0303,0.9482,-3.855,-8.8168,6.0611,0,0,0
-0.2971,0.0249,0.9475,-5.3664,-11.0992,8.8779,0,0,0
-0.2971,0.0271,0.9443,-6.1527,-13.3282,12.9771,0,0,0
-0.291,0.0281,0.9558,-6.5038,-15.9618,16.2595,0,0,0
-0.2854,0.0361,0.9475,-6.4504,-18.2824,18.3435,0,0,0
-0.2827,0.0308,0.9231,-4.6489,-22.0,20.7328,0,0,0
-0.2876,0.0667,0.9465,-5.2137,-26.4351,20.7099,0,0,0
-0.2644,0.0574,0.9741,-4.9924,-28.7557,21.0305,0,0,0
-0.2559,0.0676,1.0081,-5.1832,-27.2595,22.3282,0,0,0
-0.2407,0.0598,1.012,-6.4504,-23.2824,23.3893,0,0,0
-0.2366,0.0703,0.9841,-7.8779,-21.3893,25.084,0,0,0
-0.2207,0.0745,0.9517,-9.9771,-21.3435,26.0382,0,0,0
-0.2219,0.0942,0.9368,-12.7786,-23.2061,26.1603,0,0,0
-0.2061,0.0884,0.9634,-13.3359,-25.084,24.9084,0,0,0
-0.2029,0.0876,0.9971,-15.0458,-26.0916,22.9237,0,0,0
-0.1985,0.0825,1.0222,-14.0916,-24.6336,21.9237,0,0,0
-0.1934,0.0759,1.0312,-12.1908,-22.5954,21.3282,0,0,0
-0.2034,0.0735,1.01,-11.1832,-20.771,21.6183,0,0,0
-0.2141,0.0684,0.9749,-10.5649,-20.6107,22.1221,0,0,0
-0.209,0.0557,0.9172,-11.2137,-25.2672,23.3969,0,0,0
-0.2021,0.0493,0.9497,-10.6412,-29.374,24.8397,0,0,0
-0.1917,0.0527,1.001,-10.374,-30.7023,25.4504,0,0,0
-0.1973,0.0667,1.0166,-10.5038,-29.4275,26.0916,0,0,0
-0.1721,0.0371,1.0198,-9.5649,-28.084,28.0305,0,0,0
-0.1667,0.0569,1.0212,-9.855,-27.0076,29.6641,0,0,0
-0.1514,0.0684,1.0249,-11.7099,-25.6336,30.0153,0,0,0
-0.1367,0.0625,1.0469,-12.4351,-23.916,29.4809,0,0,0
-0.1348,0.0664,1.0239,-10.5878,-22.2748,27.9542,0,0,0
-0.1294,0.0737,1.0051,-9.145,-23.1908,25.9542,0,0,0
-0.1235,0.0662,0.9961,-8.3893,-25.145,25.145,0,0,0
-0.1255,0.0745,1.0042,-8.7328,-27.2137,24.6794,0,0,0
-0.1116,0.0657,1.0315,-7.4046,-27.626,24.5802,0,0,0
-0.0925,0.0747,1.0789,-6.7557,-26.145,23.6107,0,0,0
-0.0835,0.085,1.0928,-5.5954,-21.7099,22.5573,0,0,0
-0.0754,0.0942,1.0845,-4.3206,-17.5573,20.8931,0,0,0
-0.0706,0.1016,1.0625,-4.458,-14.7099,18.229,0,0,0
-0.0864,0.1064,1.041,-4.3435,-13.1832,15.2824,0,0,0
-0.0876,0.1069,1.0078,-4.2977,-14.5878,12.3588,0,0,0
-0.0845,0.082,1.0154,-3.7405,-17.3511,11.1374,0,0,0
-0.0933,0.0767,1.0244,-2.7252,-18.7099,10.8397,0,0,0
-0.0959,0.075,1.0176,-1.4351,-20.8244,10.4809,0,0,0
-0.0864,0.0798,1.0442,-1.1832,-21.1603,10.2366,0,0,0
-0.0732,0.0825,1.0798,-2.374,-18.2595,9.7252,0,0,0
-0.0652,0.0896,1.085,-5.3435,-14.1908,9.2366,0,0,0
-0.0544,0.0986,1.0779,-6.4427,-10.3817,8.8931,0,0,0
-0.0469,0.1055,1.0752,-7.0382,-6.084,7.5191,0,0,0
-0.0513,0.116,1.0505,-7.8168,-3.8473,4.7176,0,0,0
-0.0615,0.0989,1.0239,-7.6718,-3.7786,2.1298,0,0,0
-0.071,0.0879,1.022,-5.7328,-6.1069,-0.3893,0,0,0
-0.0745,0.0825,1.0471,-3.2366,-7.3817,-1.6489,0,0,0
-0.0708,0.0667,1.0674,-1.0687,-6.9771,-2.0305,0,0,0
-0.0681,0.0715,1.0767,0.1221,-4.7252,-1.2137,0,0,0
-0.0618,0.0718,1.0527,0.4122,-2.0153,-1.0153,0,0,0
-0.0591,0.0764,1.0361,-1.0687,-0.8473,-0.9466,0,0,0
-0.0601,0.0823,1.0234,-3.1679,0.0916,-1.7481,0,0,0
-0.0637,0.0664,1.0242,-4.5038,0.0534,-3.0687,0,0,0
-0.0732,0.0662,1.0369,-4.4046,-0.5267,-3.8626,0,0,0
-0.0764,0.0583,1.0435,-3.2137,-1.0916,-4.1985,0,0,0
-0.0767,0.0662,1.0398,-2.5573,-0.9313,-4.4275,0,0,0
-0.0698,0.0605,1.0276,-2.0611,-0.4656,-4.6718,0,0,0
-0.072,0.0493,1.0117,-2.9313,-0.313,-5.3817,0,0,0
-0.083,0.0405,1.0129,-3.2366,-0.4656,-4.5344,0,0,0
-0.0857,0.0378,1.0085,-3.5954,-1.1985,-3.0611,0,0,0
-0.0894,0.0471,1.0151,-4.4809,-1.4351,-1.6336,0,0,0
-0.085,0.0466,0.9976,-5.7099,-1.4122,-1.0687,0,0,0
-0.0771,0.051,0.9868,-6.5115,-2.0229,-0.9313,0,0,0
-0.0786,0.0474,1.0034,-6.771,-3.1145,-1.4504,0,0,0
-0.082,0.0347,1.0317,-6.1221,-4.0611,-1.855,0,0,0
-0.0911,0.0281,1.0466,-4.2901,-3.6641,-1.4122,0,0,0
-0.085,0.0295,1.0369,-2.4504,-3.3817,-0.1145,0,0,0
-0.075,0.0361,1.0359,-0.6718,-3.4351,1.0229,0,0,0
-0.0703,0.0493,1.0264,-0.771,-3.6183,1.1221,0,0,0
-0.0681,0.0559,1.0361,-1.4198,-3.2595,0.2595,0,0,0
-0.0605,0.0566,1.0513,-2.3664,-1.458,-0.313,0,0,0
-0.0605,0.0469,1.0508,-2.8015,0.1756,-0.4809,0,0,0
-0.062,0.0439,1.0422,-2.3817,0.8931,-0.0229,0,0,0
-0.075,0.0488,1.022,-1.9084,-0.0611,0.7252,0,0,0
-0.0671,0.0522,1.0264,-1.4885,-1.5267,1.2443,0,0,0
-0.0693,0.063,1.0337,-1.8397,-2.0076,0.5267,0,0,0
-0.063,0.0642,1.033,-2.2977,-1.8015,-0.6489,0,0,0
-0.0618,0.0549,1.0447,-2.5954,-0.7023,-1.1908,0,0,0
-0.0637,0.0527,1.0474,-2.374,0.4275,-1.2519,0,0,0
-0.071,0.0474,1.042,-1.9695,1.1145,-0.8473,0,0,0
-0.0718,0.0479,1.0339,-1.374,1.2443,-0.5038,0,0,0
-0.0771,0.0547,1.0249,-0.3588,0.6336,-0.6489,0,0,0
-0.0808,0.0603,1.0203,-1.1145,0.4275,-0.7634,0,0,0
-0.0723,0.0581,1.0266,-1.5954,0.0534,-0.7023,0,0,0
-0.071,0.0542,1.0298,-2.4885,0.0916,-0.8397,0,0,0
-0.0803,0.0571,1.032,-2.313,0.8779,-0.9771,0,0,0
-0.0786,0.053,1.0281,-1.8397,1.1908,-0.9695,0,0,0
-0.0725,0.05,1.0281,-0.7863,0.5878,-0.9924,0,0,0
-0.0789,0.0647,1.0215,0.1374,0.2824,-1.145,0,0,0
-0.073,0.0591,1.0151,0.2137,-0.2137,-1.8702,0,0,0
-0.0701,0.0537,1.0254,-0.626,-0.7634,-2.0229,0,0,0
-0.0686,0.0496,1.0137,-1.2901,-0.2901,-1.8397,0,0,0
-0.071,0.052,1.0085,-2.0992,-0.4962,-1.2977,0,0,0
-0.0774,0.0503,1.0059,-2.4046,-0.5649,-1.1985,0,0,0
-0.0735,0.0508,1.0112,-3.0916,-1.1221,-0.7557,0,0,0
-0.0774,0.0486,1.0234,-2.6031,-0.5267,-0.7557,0,0,0
-0.0662,0.0449,1.0269,-2.1679,-0.3511,-0.6565,0,0,0
-0.0625,0.0488,1.0278,-1.626,-0.6718,0.1603,0,0,0
-0.0701,0.0608,1.022,-1.145,-0.6641,-0.6641,0,0,0
-0.0696,0.0593,1.0181,-0.8168,-1.1145,-2.229,0,0,0
-0.0737,0.0571,1.0166,-1.1527,-1.3588,-3.1374,0,0,0
-0.074,0.0452,0.9985,-1.6641,-1.9237,-3.0687,0,0,0
-0.0796,0.0383,1.0183,-3.0534,-2.5878,-2.5344,0,0,0
-0.0901,0.0381,1.0315,-3.4885,-2.2748,-1.4198,0,0,0
-0.0776,0.0337,1.04,-4.1527,-1.4962,-0.1756,0,0,0
-0.0745,0.0317,1.0381,-4.1908,-0.8779,0.7939,0,0,0
-0.0796,0.0459,1.0334,-3.2519,-0.6412,1.1145,0,0,0
-0.0793,0.0542,1.0195,-1.6718,-1.2748,0.3969,0,0,0
-0.0781,0.0532,1.0149,-0.5115,-3.1298,-0.626,0,0,0
-0.0793,0.0479,1.0151,-0.0916,-4.6641,-1.374,0,0,0
-0.0725,0.0417,1.0278,-0.3053,-5.374,-1.4656,0,0,0
-0.0723,0.0415,1.0525,-1.3969,-3.9084,0.0763,0,0,0
-0.062,0.0435,1.0583,-2.6412,-1.3206,1.458,0,0,0
-0.0588,0.0569,1.0505,-3.6947,0.9466,2.0687,0,0,0
-0.0615,0.0664,1.0361,-3.5344,1.7786,1.3359,0,0,0
-0.0671,0.0688,1.0198,-2.6565,1.0229,-0.4198,0,0,0
-0.0659,0.0681,1.0044,-1.6641,-0.8702,-2.0153,0,0,0
-0.0762,0.0679,1.01,0.1527,-2.8855,-3.7328,0,0,0
-0.0784,0.0596,1.01,1.4275,-4.6565,-4.3053,0,0,0
-0.0688,0.0435,1.0212,1.0611,-5.6794,-3.7481,0,0,0
-0.0593,0.0503,1.0298,-0.1145,-4.3206,-2.9084,0,0,0
-0.0625,0.0566,1.0337,-1.916,-2.4198,-1.8626,0,0,0
-0.0615,0.0559,1.0312,-2.6031,-0.687,-1.9237,0,0,0
-0.0637,0.0601,1.0034,-2.5115,-1.2519,-2.374,0,0,0
-0.0662,0.0647,0.9873,-1.5496,-3.4198,-3.5725,0,0,0
-0.0645,0.0674,0.9812,-0.5802,-6.2672,-5.0916,0,0,0
-0.0676,0.0642,0.9802,-0.4046,-7.9542,-6.5496,0,0,0
-0.0642,0.0549,0.9785,-0.1374,-10.1298,-7.687,0,0,0
-0.061,0.0459,0.9939,-0.542,-11.4809,-8.0534,0,0,0
-0.0693,0.0396,1.0088,-0.458,-12.3664,-7.5267,0,0,0
-0.0728,0.0432,1.0134,-1.1298,-12.2366,-6.9313,0,0,0
-0.0566,0.0386,1.019,-2.0229,-11.7328,-5.4198,0,0,0
-0.0532,0.0427,1.0354,-3.229,-10.4122,-4.5802,0,0,0
-0.0476,0.0442,1.0171,-3.4809,-9.3969,-4.2977,0,0,0
-0.0466,0.053,1.0225,-2.9389,-9.8092,-4.8168,0,0,0
-0.0491,0.0583,1.0386,-2.3817,-9.6031,-5.7405,0,0,0
-0.0513,0.0493,1.032,-1.1145,-9.8931,-6.1069,0,0,0
-0.0469,0.0527,1.0425,-0.145,-9.9313,-6.0382,0,0,0
-0.0388,0.0535,1.0498,0.9313,-9.5725,-5.2519,0,0,0
-0.0386,0.0481,1.0493,0.6031,-8.6718,-4.7939,0,0,0
-0.0452,0.033,1.0549,0.0382,-7.0382,-4.3969,0,0,0
-0.0544,0.0247,1.0515,-0.4656,-5.8473,-2.8473,0,0,0
-0.0522,0.0156,1.04,-2.5038,-4.687,0.5954,0,0,0
-0.0513,0.0234,1.0496,-4.4656,-3.3588,4.2366,0,0,0
-0.0369,0.0356,1.0571,-5.6183,-1.8931,6.7176,0,0,0
-0.0322,0.0605,1.0679,-5.5038,-0.7939,6.7328,0,0,0
-0.0269,0.0701,1.0605,-4.2366,0.4885,4.771,0,0,0
-0.0254,0.0759,1.0513,-2.2443,-0.0534,1.8321,0,0,0
-0.0261,0.0718,1.0513,0.0992,-1.145,-0.3969,0,0,0
-0.0278,0.0488,1.0662,1.9008,-2.0229,-2.0153,0,0,0
-0.0308,0.0361,1.0659,2.4962,-2.0305,-1.7634,0,0,0
-0.0371,0.0371,1.0693,2.4046,-0.0763,-0.9466,0,0,0
-0.031,0.0403,1.0591,1.3053,1.3206,0.6183,0,0,0
-0.0261,0.0505,1.0476,0.0992,2.9618,1.6412,0,0,0
-0.03,0.0515,1.0591,-1.1603,4.6336,2.0076,0,0,0
-0.0391,0.0566,1.0315,-1.5267,5.7939,1.0229,0,0,0
-0.0417,0.061,1.0369,-1.374,5.2443,0.9008,0,0,0
-0.0432,0.0576,1.0278,-0.7557,5.687,0.2366,0,0,0
-0.0417,0.0605,1.0195,0.0458,4.9847,-0.6794,0,0,0
-0.0352,0.0566,1.0137,0.2443,4.3282,-1.1069,0,0,0
-0.0408,0.0508,1.0037,1.0611,3.2137,-1.3282,0,0,0
-0.0442,0.051,1.0002,1.3359,1.7328,-1.2672,0,0,0
-0.0437,0.0454,1.0125,0.9237,0.5878,-0.8473,0,0,0
-0.0425,0.054,1.0115,0.2061,0.084,-0.313,0,0,0
-0.0405,0.0559,1.01,-0.7252,-0.0992,-0.1145,0,0,0
-0.0374,0.0566,1.0244,-2.5038,0.3893,0.2443,0,0,0
-0.0393,0.0583,1.0293,-3.5115,1.7405,0.2595,0,0,0
-0.042,0.0686,1.0208,-3.4198,2.4733,0.2748,0,0,0
-0.0371,0.0735,1.01,-3.1832,2.2519,-0.2061,0,0,0
-0.0359,0.071,1.0076,-4.0305,2.0687,-0.916,0,0,0
-0.04,0.0576,1.0181,-3.5115,0.7176,-2.1679,0,0,0
-0.0522,0.0513,1.021,-2.0992,-0.1985,-2.8702,0,0,0
-0.0532,0.0442,1.0244,-0.855,-1.8168,-2.3282,0,0,0
-0.0481,0.0435,1.0291,-1.0992,-1.7328,-1.4809,0,0,0
-0.0483,0.0522,1.0383,-1.3359,-0.4809,-0.458,0,0,0
-0.0486,0.0544,1.0425,-1.0687,1.4198,-1.0076,0,0,0
-0.0518,0.0522,1.0269,-1.145,1.7557,-1.5267,0,0,0
-0.0557,0.05,1.0095,-1.458,0.8931,-0.9924,0,0,0
-0.0586,0.0518,1.0129,-1.7863,0.2748,-1.0,0,0,0
-0.0564,0.0396,1.0144,-2.1145,-0.084,-0.4809,0,0,0
-0.0562,0.0466,1.0264,-1.2214,-0.7939,0.0382,0,0,0
-0.0576,0.0474,1.0208,-0.2443,-1.6489,1.0,0,0,0
-0.0508,0.0566,1.0386,-0.313,-1.3817,1.3359,0,0,0
-0.041,0.0681,1.0293,-0.8244,0.1527,0.7099,0,0,0
-0.0439,0.0701,1.0029,-2.1985,0.229,-0.0916,0,0,0
-0.0435,0.0601,0.989,-3.0229,-1.5191,-0.6489,0,0,0
-0.0444,0.0522,1.0178,-3.313,-3.5802,-0.7634,0,0,0
-0.0605,0.064,1.0569,-1.4809,-2.6183,-1.0992,0,0,0
-0.0461,0.0498,1.0566,-0.1832,-1.229,-1.1374,0,0,0
-0.0347,0.0557,1.0469,-0.4122,0.3435,-0.3893,0,0,0
-0.0371,0.0652,1.0278,-1.4962,1.0611,-0.2748,0,0,0
-0.0408,0.0669,1.0239,-2.7176,1.6718,-1.1145,0,0,0
-0.0415,0.0618,1.0183,-3.7481,2.1832,-1.6183,0,0,0
-0.0522,0.0498,1.0029,-4.9084,1.2672,-1.6412,0,0,0
-0.063,0.0488,1.0134,-4.9237,0.0076,-1.2061,0,0,0
-0.0637,0.0488,1.031,-3.9008,0.1756,-0.8931,0,0,0
-0.0591,0.0374,1.031,-2.9542,0.1756,-0.0687,0,0,0
-0.0571,0.0444,1.0276,-2.4809,0.145,1.2595,0,0,0
-0.0562,0.0513,1.0227,-2.2443,-0.5725,1.3588,0,0,0
-0.051,0.0532,1.0312,-2.3511,-1.0611,0.3893,0,0,0
-0.0515,0.05,1.0525,-2.916,-0.4962,-0.1908,0,0,0
-0.0522,0.0437,1.0452,-3.4351,1.0305,-0.4351,0,0,0
-0.0471,0.0339,1.0332,-2.6412,1.0305,0.8397,0,0,0
-0.0564,0.0457,1.0459,-2.4885,0.9695,2.0687,0,0,0
-0.054,0.0483,1.0515,-1.4046,1.6107,1.9924,0,0,0
-0.0454,0.05,1.0403,-0.6794,2.2137,1.6489,0,0,0
-0.0469,0.0596,1.0303,-0.2519,2.3893,1.916,0,0,0
-0.0469,0.0574,1.0159,0.5573,1.9084,0.9237,0,0,0
-0.0469,0.0649,1.0022,0.3893,0.9771,0.6489,0,0,0
-0.0471,0.0684,0.9954,-0.4275,-0.1603,-0.0763,0,0,0
-0.0498,0.0593,1.0044,-1.687,-0.2366,-0.542,0,0,0
-0.054,0.0505,0.9973,-2.9771,-0.9008,-0.8473,0,0,0
-0.0522,0.0503,1.0122,-3.5954,-2.1374,0.2137,0,0,0
-0.0586,0.0605,1.021,-2.9847,-1.5344,1.1908,0,0,0
-0.0535,0.054,1.0142,-2.1756,-1.3817,1.2672,0,0,0
-0.0591,0.0593,1.0076,-1.313,-2.4198,1.5344,0,0,0
-0.0469,0.0603,1.0059,-0.916,-4.2824,1.2061,0,0,0
-0.0442,0.0588,1.0129,-0.5191,-5.4504,0.9466,0,0,0
-0.0422,0.0574,1.0217,-0.6718,-5.0534,0.6412,0,0,0
-0.0325,0.0615,1.0278,-0.9389,-4.8092,1.1298,0,0,0
-0.0295,0.0676,1.0415,-1.9695,-4.1756,1.2137,0,0,0
-0.0332,0.064,1.0535,-2.1527,-2.4504,0.7557,0,0,0
-0.0322,0.0696,1.0508,-2.7481,-1.5954,-0.4656,0,0,0
-0.0344,0.0664,1.0515,-3.0,-0.2595,-1.4198,0,0,0
-0.0371,0.0583,1.0405,-3.2519,0.7557,-1.9313,0,0,0
-0.0491,0.0527,1.0222,-3.3359,0.374,-1.7023,0,0,0
-0.054,0.0481,1.0222,-3.9695,-0.0153,-1.7176,0,0,0
-0.0593,0.0469,1.033,-3.8015,-0.1832,-1.7939,0,0,0
-0.0571,0.0388,1.041,-3.4504,-0.4733,-1.7176,0,0,0
-0.0591,0.0386,1.0444,-2.9924,-0.9847,-1.2061,0,0,0
-0.0588,0.0413,1.0371,-2.6718,-0.9084,-0.7252,0,0,0
-0.0542,0.041,1.0544,-2.1756,0.0534,-0.3282,0,0,0
-0.0559,0.0457,1.0442,-1.9771,0.7405,0.1908,0,0,0
-0.0486,0.0452,1.0339,-1.458,1.0382,0.1221,0,0,0
-0.0464,0.0525,1.0225,-1.7786,0.5115,0.2519,0,0,0
-0.0452,0.0552,1.0308,-1.7099,-0.4198,-0.5344,0,0,0
-0.0476,0.0608,1.0176,-1.4198,-1.0229,-0.9466,0,0,0
-0.0386,0.0505,1.0273,-1.4122,-1.3817,-1.0611,0,0,0
-0.0369,0.0574,1.0298,-1.626,-1.1145,-0.5649,0,0,0
-0.0408,0.0613,1.0271,-1.542,-1.1069,-1.0076,0,0,0
-0.0396,0.0635,1.0334,-1.8397,-0.4504,-1.5191,0,0,0
-0.0398,0.0542,1.0222,-2.1527,-0.0153,-2.0763,0,0,0
-0.0457,0.0549,1.0178,-2.0229,-0.0305,-1.9618,0,0,0
-0.0469,0.0493,1.0063,-1.771,-0.7939,-2.0076,0,0,0
-0.0476,0.0549,1.0227,-1.4198,-1.3206,-1.7786,0,0,0
-0.0483,0.051,1.0166,-1.2443,-1.6489,-1.1908,0,0,0
-0.0515,0.051,1.0139,-1.1298,-1.626,-1.2443,0,0,0
-0.0447,0.0449,1.0198,-1.1603,-1.7634,-1.2748,0,0,0
-0.0449,0.0464,1.0198,-1.626,-1.3817,-1.0611,0,0,0
-0.0491,0.0493,1.0188,-1.6794,-1.4046,-0.8015,0,0,0
-0.051,0.0537,1.0171,-1.6718,-1.6489,-0.2214,0,0,0
-0.0457,0.0498,1.0264,-1.7863,-1.2061,-0.1756,0,0,0
-0.05,0.0576,1.0352,-1.8321,-1.2824,0.084,0,0,0
-0.0454,0.0549,1.0247,-1.4046,-1.5802,-0.5573,0,0,0
-0.0486,0.054,1.0344,-1.7252,-1.4656,-0.7328,0,0,0
-0.051,0.0508,1.0308,-2.0382,-1.4351,-0.4351,0,0,0
-0.0435,0.052,1.0396,-2.5038,-1.5573,-0.2824,0,0,0
-0.0449,0.0547,1.0376,-2.5038,-0.9924,-0.0076,0,0,0
-0.0391,0.0549,1.0491,-1.9847,-0.7176,-0.6336,0,0,0
-0.0415,0.0576,1.0503,-1.2748,-0.5725,-1.0382,0,0,0
-0.0413,0.0522,1.0427,-0.4962,-0.8321,-1.8931,0,0,0
-0.0388,0.0508,1.054,-0.7481,-1.0229,-1.9237,0,0,0
-0.041,0.0537,1.0486,-0.1985,-0.313,-1.855,0,0,0
-0.0417,0.0498,1.0461,-0.8931,0.4733,-1.7176,0,0,0
-0.0439,0.054,1.0396,-0.7405,1.5725,-1.3588,0,0,0
-0.0457,0.0537,1.0161,-1.0153,1.7863,-1.0916,0,0,0
-0.0471,0.0579,1.0156,-0.6718,1.2214,-1.8015,0,0,0
-0.0557,0.0635,1.0142,0.0229,0.9313,-2.4885,0,0,0
-0.0525,0.053,1.0146,0.4122,0.3893,-2.7328,0,0,0
-0.0518,0.0461,1.0134,0.0611,-0.4656,-2.3282,0,0,0
-0.0532,0.072,1.0186,-0.7405,-0.4656,-1.6107,0,0,0
-0.05,0.0601,1.0117,-0.9924,0.0534,-1.2901,0,0,0
-0.0493,0.0664,1.0071,-1.2977,-0.2672,-1.1832,0,0,0
-0.0518,0.0596,1.0078,-1.542,-0.6718,-1.5649,0,0,0
-0.0474,0.0566,1.0029,-1.6947,-1.4198,-1.7786,0,0,0
-0.0454,0.0513,1.0283,-1.3282,-1.855,-2.2519,0,0,0
-0.0452,0.051,1.0342,-1.4198,-1.7481,-1.8168,0,0,0
-0.0503,0.0486,1.0369,-1.2366,-0.8168,-1.4656,0,0,0
-0.0391,0.0388,1.0332,-0.916,-0.1832,-1.3817,0,0,0
-0.0408,0.0405,1.0247,-0.6565,-0.3588,-0.9313,0,0,0
-0.0334,0.0403,1.0139,-0.2443,-1.1298,-0.4885,0,0,0
-0.0396,0.0161,1.01,-0.1603,-1.6794,0.1756,0,0,0
-0.0334,0.0498,1.022,-0.8473,-2.1221,-1.2901,0,0,0
-0.041,0.0518,1.0308,-0.5573,-0.6794,-2.5267,0,0,0
-0.0549,0.0442,1.0239,-0.1145,-0.0153,-3.3817,0,0,0
-0.0603,0.0225,0.9995,0.5038,-0.855,-2.8015,0,0,0
-0.0725,0.0283,0.9797,0.1832,-2.2824,-1.084,0,0,0
-0.0725,0.0229,0.9836,-0.313,-4.1069,0.5191,0,0,0
-0.0723,0.0273,0.9951,-1.4046,-5.084,1.8473,0,0,0
-0.072,0.031,1.0071,-1.4656,-5.771,3.9084,0,0,0
-0.0527,0.0425,1.0229,-1.9618,-6.0687,5.2901,0,0,0
-0.0444,0.0569,1.0334,-1.6107,-5.4885,6.6565,0,0,0
-0.0327,0.0728,1.0535,-1.0,-4.1374,6.4504,0,0,0
-0.0234,0.0857,1.0408,-0.2977,-3.7176,4.9618,0,0,0
-0.0264,0.0854,1.0476,0.2061,-3.3817,2.5878,0,0,0
-0.022,0.0793,1.0559,0.5573,-3.7634,0.9695,0,0,0
-0.0264,0.0625,1.0662,1.0229,-2.687,0.8168,0,0,0
-0.0291,0.062,1.0671,1.4351,-1.2595,1.3282,0,0,0
-0.0227,0.0645,1.0579,1.6794,-0.2748,2.1145,0,0,0
-0.0291,0.0789,1.0488,1.458,0.4122,2.3664,0,0,0
-0.0276,0.0847,1.0327,1.3282,0.8092,1.6641,0,0,0
-0.0271,0.0847,1.0276,0.8473,0.4427,0.3053,0,0,0
-0.0383,0.0859,1.0132,0.2519,0.1221,-1.3588,0,0,0
-0.0391,0.0769,0.9995,-0.3817,-0.3206,-2.5573,0,0,0
-0.0466,0.0618,1.0071,-1.5878,-0.9237,-2.4275,0,0,0
-0.0513,0.0627,1.0188,-2.7786,-1.2901,-1.3588,0,0,0
-0.0491,0.0635,1.0227,-3.7786,-1.1145,-0.0305,0,0,0
-0.0442,0.0605,1.0254,-4.8931,-1.0229,0.7939,0,0,0
-0.043,0.0662,1.0364,-5.2977,-1.7481,1.2672,0,0,0
-0.0359,0.0698,1.0432,-4.9542,-1.6947,0.5573,0,0,0
-0.0378,0.0625,1.0535,-4.1908,-2.1145,0.0916,0,0,0
-0.0269,0.0625,1.0696,-2.8702,-1.5878,-0.5344,0,0,0
-0.0251,0.0649,1.0647,-1.8779,-0.6336,-0.5496,0,0,0
-0.0232,0.0718,1.0522,-1.3053,0.8168,-0.9313,0,0,0
-0.02,0.0681,1.0522,-1.1679,1.8473,-1.3053,0,0,0
-0.0217,0.072,1.0452,-1.542,2.6183,-2.0992,0,0,0
-0.0308,0.0652,1.0371,-1.7863,2.8931,-3.4198,0,0,0
-0.0408,0.0608,1.0322,-1.1832,2.9466,-4.7863,0,0,0
-0.042,0.0486,1.0405,-0.8779,2.8015,-4.9313,0,0,0
-0.0479,0.0374,1.0303,-0.6031,2.5496,-4.771,0,0,0
-0.0481,0.0342,1.0244,-0.5725,2.5649,-3.6031,0,0,0
-0.051,0.0288,1.0203,-0.8015,2.3282,-1.9847,0,0,0
-0.052,0.0388,1.0193,-1.1985,2.1069,-1.2519,0,0,0
-0.051,0.0452,1.0261,-1.5344,1.6565,-0.5573,0,0,0
-0.0464,0.0486,1.0281,-1.6565,1.2214,-0.4275,0,0,0
-0.0405,0.053,1.03,-1.1221,1.8473,-0.5038,0,0,0
-0.0483,0.063,1.0322,-0.7176,2.374,-1.2214,0,0,0
-0.0471,0.053,1.0156,-0.2977,2.0687,-1.6107,0,0,0
-0.0518,0.0679,1.0039,-0.5267,1.2137,-1.2901,0,0,0
-0.0564,0.0581,1.0085,-0.145,1.2137,-1.2443,0,0,0
-0.0542,0.0654,1.0139,-0.7786,0.8015,-1.1985,0,0,0
-0.0527,0.0613,1.019,-1.2519,0.6489,-0.3588,0,0,0
-0.0474,0.0635,1.0103,-1.2672,0.6947,0.1527,0,0,0
-0.0425,0.072,1.012,-1.4656,0.5496,0.8473,0,0,0
-0.04,0.0774,1.0203,-1.3511,0.6641,1.1985,0,0,0
-0.0325,0.0803,1.0225,-1.9237,0.2595,0.6412,0,0,0
-0.0332,0.0925,1.0278,-1.7939,0.4122,0.0611,0,0,0
-0.0334,0.0903,1.0286,-1.6031,0.3817,-1.084,0,0,0
-0.0295,0.0879,1.0244,-0.9924,0.9084,-2.2366,0,0,0
-0.0315,0.0894,1.0195,-0.7405,1.1832,-3.1298,0,0,0
-0.0398,0.0872,1.019,-0.4427,1.0076,-4.458,0,0,0
-0.04,0.0723,1.0098,-0.3893,0.7176,-5.0229,0,0,0
-0.0381,0.064,1.0208,-0.2061,0.2748,-4.6641,0,0,0
-0.0464,0.0566,1.0205,-0.1985,0.1679,-3.8244,0,0,0
-0.0449,0.0576,1.0156,-0.6107,-0.1832,-3.4809,0,0,0
-0.0435,0.0623,1.0261,-0.9389,-0.1221,-3.145,0,0,0
-0.0461,0.0576,1.0271,-0.9008,0.4885,-3.5344,0,0,0
-0.0508,0.0544,1.0295,-1.1221,0.9084,-4.3817,0,0,0
-0.0591,0.053,1.0259,-0.7481,1.0916,-4.0153,0,0,0
-0.0618,0.0488,1.0198,-0.4351,0.8626,-3.7099,0,0,0
-0.0598,0.0464,1.0176,-0.3893,0.0687,-2.8015,0,0,0
-0.0632,0.0469,1.0151,-0.3053,-0.3588,-2.0153,0,0,0
-0.0579,0.0508,1.021,-1.2824,-0.7557,-1.1908,0,0,0
-0.0593,0.0522,1.0278,-1.4656,-0.4275,-0.6031,0,0,0
-0.0579,0.0601,1.0369,-1.458,-0.0153,-0.1145,0,0,0
-0.054,0.0581,1.03,-1.8321,0.1756,-0.3282,0,0,0
-0.0522,0.0632,1.0315,-1.8855,0.3893,-0.0534,0,0,0
-0.0544,0.0684,1.022,-1.2061,-0.1374,-0.0458,0,0,0
-0.0479,0.0676,1.0195,-0.626,-0.6107,-0.2672,0,0,0
-0.0503,0.071,1.0181,-0.7405,-1.5649,-0.2595,0,0,0
-0.0454,0.0669,1.0273,-1.2214,-1.7405,-1.2443,0,0,0
-0.051,0.0732,1.0293,-1.3206,-0.9771,-1.6183,0,0,0
-0.0508,0.0681,1.0203,-1.0458,-0.3664,-1.7252,0,0,0
-0.051,0.0732,1.02,-1.0229,0.1069,-1.771,0,0,0
-0.053,0.0688,1.0032,-0.6031,-0.6947,-1.4504,0,0,0
-0.0508,0.0657,0.9968,-0.7099,-1.7176,-1.4122,0,0,0
-0.0432,0.061,1.0078,-1.1527,-3.7557,-1.0076,0,0,0
-0.0366,0.0571,1.0173,-1.7023,-3.8626,-0.7176,0,0,0
-0.0396,0.0593,1.0413,-2.5496,-3.2595,-0.3359,0,0,0
-0.0322,0.0593,1.0496,-3.0076,-1.8397,-0.1145,0,0,0
-0.032,0.0603,1.0598,-3.5344,-0.3511,-0.145,0,0,0
-0.042,0.0649,1.0544,-2.7328,1.229,-0.7863,0,0,0
-0.0496,0.0627,1.0337,-1.916,1.916,-1.3969,0,0,0
-0.0547,0.0515,1.022,-1.2214,1.0534,-2.145,0,0,0
-0.0645,0.0513,1.0164,-0.8015,-0.3588,-2.1908,0,0,0
-0.0625,0.0393,1.0154,-0.4962,-1.4427,-1.8855,0,0,0
-0.0613,0.0391,1.0276,-0.4046,-2.0229,-0.4962,0,0,0
-0.0652,0.0422,1.0298,-0.4962,-1.5267,0.5649,0,0,0
-0.0544,0.0471,1.0278,-0.6412,-1.0992,2.2443,0,0,0
-0.0605,0.0601,1.0325,-0.8473,-0.4809,2.9237,0,0,0
-0.05,0.0686,1.0186,-1.0229,-0.5802,3.0458,0,0,0
-0.0464,0.0811,1.0149,-1.6565,-1.5649,2.6107,0,0,0
-0.0505,0.083,1.0166,-1.9389,-2.145,1.8473,0,0,0
-0.0454,0.0835,1.0193,-2.3893,-2.2366,1.2443,0,0,0
-0.0398,0.0796,1.0325,-2.687,-1.9313,1.145,0,0,0
-0.0356,0.0752,1.0435,-2.6183,-1.084,1.5573,0,0,0
-0.0364,0.0884,1.0327,-1.6947,-0.3664,1.2824,0,0,0
-0.0305,0.0862,1.0273,-1.1298,-0.2214,0.6489,0,0,0
-0.0317,0.0928,1.0212,-0.5725,-0.687,-0.5038,0,0,0
-0.0276,0.0879,1.0151,-0.4656,-1.4427,-1.5954,0,0,0
-0.0322,0.0852,1.0195,-0.8855,-1.542,-2.1374,0,0,0
-0.0415,0.0759,1.021,-1.1832,-1.1679,-2.6947,0,0,0
-0.0432,0.0688,1.0215,-1.6031,-1.374,-2.5878,0,0,0
-0.0381,0.0654,1.021,-2.3817,-0.9924,-2.0076,0,0,0
-0.041,0.0618,1.0322,-2.2519,-0.5191,-1.4427,0,0,0
-0.0447,0.0671,1.0266,-2.0229,-0.6183,-0.9618,0,0,0
-0.0439,0.0688,1.0332,-2.0687,-0.3969,-1.1298,0,0,0
-0.0476,0.0691,1.0308,-2.084,-0.1527,-2.2137,0,0,0
-0.0496,0.0583,1.0229,-1.3664,-0.5802,-2.4885,0,0,0
-0.0564,0.0532,1.0142,-0.6412,-1.6031,-2.4046,0,0,0
-0.0537,0.0491,1.022,-0.5649,-3.0534,-1.229,0,0,0
-0.0569,0.0505,1.0393,-0.6183,-3.4504,-0.3893,0,0,0
-0.0459,0.0566,1.0547,-0.626,-2.9847,0.0763,0,0,0
-0.0425,0.0576,1.0583,-1.5725,-1.6412,0.6336,0,0,0
-0.0339,0.0713,1.0522,-2.3969,-0.0305,0.916,0,0,0
-0.0435,0.0754,1.0454,-2.7481,1.1679,0.1756,0,0,0
-0.0425,0.0715,1.0386,-2.7481,1.8092,-0.6565,0,0,0
-0.0474,0.0669,1.0308,-2.4198,1.0382,-1.4962,0,0,0
-0.0552,0.0554,1.021,-1.6641,0.3588,-2.1679,0,0,0
-0.0583,0.0496,1.0232,-0.9466,-0.6107,-1.6183,0,0,0
-0.0581,0.0466,1.0222,-0.8092,-1.0992,-0.4275,0,0,0
-0.0527,0.051,1.0188,-0.7176,-1.3588,1.0763,0,0,0
-0.0464,0.0664,1.0188,-1.2672,-1.1832,2.2748,0,0,0
-0.0427,0.0789,1.019,-1.3969,-0.7405,2.3588,0,0,0
-0.0391,0.0889,1.0095,-1.916,-0.3359,1.3969,0,0,0
-0.0344,0.0859,1.0093,-2.3511,-1.1832,0.374,0,0,0
-0.041,0.0845,1.0215,-2.8855,-1.4275,-0.6183,0,0,0
-0.0422,0.0718,1.0286,-2.3053,-1.5802,-1.084,0,0,0
-0.0371,0.0706,1.0408,-1.626,-1.5344,-0.8855,0,0,0
-0.0342,0.0667,1.0435,-1.626,-1.1374,0.0382,0,0,0
-0.031,0.0732,1.0413,-1.4656,-0.3893,0.4122,0,0,0
-0.0308,0.0791,1.0352,-1.5115,0.5267,0.6641,0,0,0
-0.0278,0.082,1.0415,-1.9084,0.7557,-0.5496,0,0,0
-0.0332,0.0796,1.0417,-1.8855,1.4275,-1.4656,0,0,0
-0.0398,0.0671,1.0374,-1.2748,1.5573,-2.3359,0,0,0
-0.0464,0.0605,1.0215,-0.5344,0.916,-2.5115,0,0,0
-0.0461,0.0581,1.011,0.2214,0.5115,-1.687,0,0,0
-0.0532,0.0588,1.0125,-0.1069,-0.084,-1.0992,0,0,0
-0.0488,0.0637,1.0059,-1.1145,-0.687,-0.7405,0,0,0
-0.0532,0.0715,1.0176,-2.0305,-0.4198,-0.4046,0,0,0
-0.053,0.0659,1.0176,-3.0229,-0.229,-0.4275,0,0,0
-0.0491,0.0605,1.0244,-3.374,-0.1679,-0.2137,0,0,0
-0.0486,0.063,1.0166,-2.7023,-0.2977,-0.0763,0,0,0
-0.053,0.0635,1.0037,-1.6336,-1.5496,0.0458,0,0,0
-0.0488,0.0696,1.0098,-1.2137,-2.8855,-0.1832,0,0,0
-0.0461,0.064,1.0232,-1.145,-3.458,-0.1679,0,0,0
-0.041,0.074,1.0303,-1.4733,-3.5191,-0.0992,0,0,0
-0.0361,0.072,1.0476,-1.8092,-2.1756,0.229,0,0,0
-0.0349,0.074,1.0481,-2.2748,-0.8779,0.3511,0,0,0
-0.0376,0.0718,1.0378,-2.2824,0.5954,-0.2748,0,0,0
-0.0388,0.0725,1.0276,-2.2061,0.7176,-0.7939,0,0,0
-0.0447,0.071,1.0203,-2.084,0.0305,-1.2977,0,0,0
-0.0471,0.0593,1.0229,-1.771,-1.1908,-1.5573,0,0,0
-0.0508,0.0569,1.0325,-1.7252,-1.626,-0.9924,0,0,0
-0.0503,0.0627,1.041,-1.8168,-1.5038,0.1908,0,0,0
-0.0459,0.0625,1.0503,-1.5649,-0.5115,1.1985,0,0,0
-0.0386,0.0701,1.0571,-1.0534,1.0229,1.2595,0,0,0
-0.0356,0.0718,1.0398,-0.1527,1.9695,0.771,0,0,0
-0.0356,0.0825,1.0215,-0.1069,1.4885,-0.542,0,0,0
-0.0405,0.0835,1.0239,-0.8168,0.5725,-1.8321,0,0,0
-0.0403,0.0686,1.0198,-1.2672,0.6336,-1.8626,0,0,0
-0.0442,0.0608,1.022,-1.6947,0.5496,-1.5267,0,0,0
-0.0515,0.0627,1.0239,-2.2214,0.542,-0.4198,0,0,0
-0.0442,0.0618,1.0244,-2.3893,1.1908,0.4809,0,0,0
-0.0422,0.0667,1.0276,-2.6183,1.5878,0.916,0,0,0
-0.05,0.0776,1.0154,-1.771,1.8321,-0.0382,0,0,0
-0.0469,0.0715,1.0095,-0.9847,0.7176,-0.5191,0,0,0
-0.0481,0.0713,1.0022,-0.6794,-0.8092,-0.9008,0,0,0
-0.0464,0.0735,0.999,-0.6412,-1.8626,-1.7023,0,0,0
-0.0466,0.0662,1.0144,-0.8321,-2.5344,-1.3511,0,0,0
-0.0464,0.0618,1.0159,-1.5725,-2.0763,-1.0076,0,0,0
-0.0471,0.0625,1.0178,-2.2443,-1.3206,-0.687,0,0,0
-0.0461,0.0659,1.0276,-2.9466,-1.3282,0.0153,0,0,0
-0.0459,0.0667,1.0293,-2.3435,-1.1221,0.4427,0,0,0
-0.0398,0.0708,1.0269,-2.0458,-1.0,0.1527,0,0,0
-0.0486,0.0754,1.0259,-1.8855,-0.8092,-0.5344,0,0,0
-0.0457,0.075,1.0237,-1.0611,-1.2443,-0.9618,0,0,0
-0.0435,0.0723,1.0273,-0.8015,-2.2595,-1.2672,0,0,0
-0.0469,0.0679,1.0317,-0.8015,-2.458,-1.4733,0,0,0
-0.0464,0.0647,1.0342,-1.5649,-2.2366,-0.8702,0,0,0
-0.0461,0.062,1.0476,-1.5649,-1.1221,-0.5344,0,0,0
-0.0486,0.0649,1.0549,-2.6718,-0.1908,-0.0916,0,0,0
-0.0442,0.0657,1.0505,-2.855,0.9542,0.1679,0,0,0
-0.0496,0.072,1.0442,-2.2901,1.4046,-0.1069,0,0,0
-0.0515,0.0688,1.0317,-1.374,0.855,-0.7252,0,0,0
-0.0532,0.0681,1.0354,-0.7023,0.2672,-1.4122,0,0,0
-0.0527,0.0608,1.0332,-0.0305,-0.0305,-1.1832,0,0,0
-0.0498,0.0605,1.0295,0.2824,0.0611,-0.9924,0,0,0
-0.053,0.0608,1.0317,0.1374,-0.1756,-0.1145,0,0,0
-0.0508,0.0676,1.032,-0.3893,0.084,0.3053,0,0,0
