ax,ay,az,gx,gy,gz,left_click,right_click
0.0042,0.2068,1.0056,-3.1756,0.6031,-0.5496,0,0,0
0.0044,0.2085,1.0051,-2.6412,0.3053,-1.374,0,0,0
-0.0063,0.2112,1.0125,-2.0229,0.5649,-1.5344,0,0,0
-0.0056,0.2156,1.0142,-1.2824,0.5802,-1.5267,0,0,0
-0.0073,0.2219,1.0081,-1.0611,-0.0382,-1.1298,0,0,0
-0.0051,0.2249,1.0093,-1.687,-0.6718,-0.6641,0,0,0
-0.0049,0.2202,1.0063,-2.5725,-1.2672,-0.3359,0,0,0
0.009,0.217,1.01,-3.5802,-0.3359,0.1756,0,0,0
0.01,0.2214,1.0081,-4.5573,0.5725,-0.0458,0,0,0
0.0186,0.2107,1.011,-3.8626,2.2977,-0.5573,0,0,0
0.0154,0.2183,0.9998,-7.1832,3.7557,-1.3969,0,0,0
0.0127,0.2019,1.0012,-6.1374,4.2748,-2.2824,0,0,0
0.002,0.1951,1.0276,-5.9008,5.1603,-2.687,0,0,0
-0.0107,0.1882,1.0183,-4.9313,4.3206,-2.9084,0,0,0
-0.0176,0.1858,1.0107,-3.1679,2.6183,-2.3282,0,0,0
-0.0215,0.1899,1.0049,-1.7863,0.8168,-1.8397,0,0,0
-0.0193,0.1975,1.0186,-0.7557,-0.229,-0.8626,0,0,0
-0.0083,0.2065,1.0134,-0.7786,0.2137,0.0229,0,0,0
0.0054,0.2207,1.0103,-1.8092,0.4504,0.1298,0,0,0
0.0117,0.2258,1.0037,-2.7863,1.2061,-0.5573,0,0,0
0.0144,0.2202,1.0063,-3.8168,2.0458,-1.7939,0,0,0
0.0081,0.2168,1.0134,-4.6183,3.3435,-2.7786,0,0,0
0.0034,0.2148,1.0127,-4.9618,4.7252,-3.5115,0,0,0
-0.0081,0.2029,1.0063,-5.0992,5.0,-4.2366,0,0,0
-0.0132,0.1938,1.0073,-4.8321,4.771,-4.0153,0,0,0
-0.0181,0.1958,1.0125,-4.458,4.2672,-3.458,0,0,0
-0.0166,0.1956,1.0156,-4.1527,3.9466,-3.0534,0,0,0
-0.0234,0.1938,1.0281,-2.542,3.9771,-2.1908,0,0,0
-0.0273,0.2029,1.0144,-4.0076,3.3817,-2.0916,0,0,0
-0.0286,0.2019,1.0002,-4.0916,2.5725,-2.4885,0,0,0
-0.0215,0.2012,1.0012,-3.9084,1.916,-2.3893,0,0,0
-0.0264,0.197,1.0049,-4.1603,1.9542,-2.6794,0,0,0
-0.0264,0.1956,1.0034,-3.6718,2.6336,-2.0229,0,0,0
-0.0291,0.2019,0.9919,-3.6794,1.9847,-2.084,0,0,0
-0.0435,0.2004,1.0054,-3.542,1.5878,-1.771,0,0,0
-0.0327,0.1978,1.0039,-3.145,0.9924,-1.2824,0,0,0
-0.031,0.2051,1.0063,-2.8855,0.5115,-0.8015,0,0,0
-0.0239,0.2124,1.0142,-3.1069,0.0076,-0.7786,0,0,0
-0.0156,0.2073,1.0176,-3.5191,-0.8931,-0.7786,0,0,0
0.0005,0.1997,0.9922,-2.9466,-2.0,-0.8015,0,0,0
0.0015,0.2036,1.0249,-3.4351,0.2519,0.3435,0,0,0
0.0103,0.199,1.0234,-3.5191,2.9466,-0.1908,0,0,0
0.0095,0.2014,1.022,-4.3053,4.1756,-1.3969,0,0,0
0.0022,0.2078,1.0234,-4.9924,4.374,-2.9542,0,0,0
-0.0149,0.1909,1.0256,-4.8092,4.1527,-3.8473,0,0,0
-0.0237,0.1877,1.0083,-4.7328,3.5344,-4.229,0,0,0
-0.0293,0.1797,1.0078,-3.9313,2.3359,-3.7328,0,0,0
-0.033,0.186,1.0266,-2.9008,1.7863,-2.9542,0,0,0
-0.0264,0.1836,1.0256,-1.4122,1.7023,-2.1908,0,0,0
-0.0315,0.1792,1.0125,-0.0382,0.8626,-1.3511,0,0,0
-0.0354,0.1843,1.0042,0.8702,-0.2443,-1.0305,0,0,0
-0.0366,0.1904,1.0103,1.0916,-1.0229,-0.4885,0,0,0
-0.0278,0.2041,1.0095,0.9924,-0.4885,-0.0687,0,0,0
-0.0276,0.2048,0.9995,-0.1221,-0.1374,0.1069,0,0,0
-0.0247,0.2107,1.0034,-1.4809,0.8244,-0.3664,0,0,0
-0.0288,0.2114,1.0186,-2.7634,1.9542,-0.9695,0,0,0
-0.0298,0.2085,1.0156,-3.2672,2.7863,-1.5725,0,0,0
-0.0281,0.2036,1.0078,-3.8168,2.3435,-1.5954,0,0,0
-0.031,0.1987,1.0237,-3.6947,2.7099,-1.6947,0,0,0
-0.03,0.1997,1.0181,-3.7176,3.1832,-1.374,0,0,0
-0.0359,0.1946,0.9695,-3.8397,2.916,-1.1832,0,0,0
-0.0337,0.2061,0.9143,-4.084,2.2901,-1.2366,0,0,0
-0.0371,0.2334,0.9929,-4.2748,1.1069,0.2443,0,0,0
-0.0205,0.2419,1.1619,-7.5038,6.2672,2.6489,0,0,0
-0.002,0.2058,1.1035,-5.6489,11.6565,2.1908,0,0,0
-0.0247,0.2153,0.9863,-12.6641,9.5802,-1.313,0,0,0
-0.0349,0.1956,0.9995,-17.7939,8.0458,-3.2519,0,0,0
-0.0137,0.1885,1.0349,-19.3817,12.8168,-1.0458,0,0,0
0.011,0.2087,1.0198,-21.8321,19.5649,-0.2595,0,0,0
0.03,0.2046,0.9788,-20.9008,21.9466,-1.3664,0,0,0
0.0105,0.1926,1.0044,-17.0611,21.4198,-4.8015,0,0,0
-0.019,0.1357,1.0999,-5.1221,23.6336,-7.3664,0,0,0
-0.0554,0.1953,1.0703,-3.9466,21.0,-7.7939,0,0,0
-0.1074,0.1467,1.0417,5.1832,18.2214,-6.3359,0,0,0
-0.0654,0.1868,0.9939,-2.916,17.4885,-4.3817,0,0,0
-0.0496,0.2148,1.0415,-3.4351,21.3435,-2.3206,0,0,0
-0.0042,0.1992,1.0459,3.1069,25.6412,-0.313,0,0,0
-0.0051,0.2131,0.9885,2.9847,27.4656,-3.1069,0,0,0
-0.0217,0.2173,0.9539,-0.6947,24.2214,-8.7634,0,0,0
-0.062,0.2141,0.9741,-7.229,20.374,-14.3359,0,0,0
-0.0835,0.2417,1.0149,-8.8168,21.0229,-20.2061,0,0,0
-0.0771,0.1538,1.0161,-9.9237,22.458,-19.7099,0,0,0
-0.1211,0.1995,1.0347,-11.6718,25.0,-17.0763,0,0,0
-0.1401,0.1619,1.0356,-11.7328,29.4656,-14.8015,0,0,0
-0.1372,0.1777,1.0671,-17.5573,35.0687,-12.916,0,0,0
-0.1514,0.1506,1.0862,-17.7939,40.3359,-9.145,0,0,0
-0.1362,0.1572,1.074,-15.8015,42.4275,-8.6489,0,0,0
-0.1543,0.1743,1.0171,-14.8931,38.6107,-8.8779,0,0,0
-0.1987,0.1492,0.825,-7.0076,29.4275,-12.8321,0,0,0
-0.1711,0.1621,1.0234,-11.8779,25.0687,-13.4962,0,0,0
-0.1936,0.137,1.0132,-15.3053,25.3206,-13.9389,0,0,0
-0.198,0.1267,1.03,-11.4351,29.084,-10.374,0,0,0
-0.2004,0.1343,1.0388,-16.5191,32.7863,-7.374,0,0,0
-0.1975,0.1211,1.0244,-17.313,34.6412,-5.9313,0,0,0
-0.1965,0.1096,1.022,-14.1679,33.6412,-5.0458,0,0,0
-0.1968,0.1184,1.0317,-10.0458,31.9237,-4.2137,0,0,0
-0.1987,0.1033,1.0237,-4.6947,29.7786,-4.8244,0,0,0
-0.2024,0.114,1.011,0.7557,26.5878,-5.2519,0,0,0
-0.2024,0.1216,1.0144,1.9542,25.313,-7.084,0,0,0
-0.2153,0.1001,1.0068,5.9237,23.7786,-7.0687,0,0,0
-0.241,0.1074,1.0171,6.7176,24.4885,-5.8779,0,0,0
-0.2485,0.0969,0.9924,6.229,24.7634,-2.7252,0,0,0
-0.2461,0.1204,0.959,5.6947,23.8702,-0.3282,0,0,0
-0.2324,0.1335,0.9368,4.6489,21.6031,1.3664,0,0,0
-0.2231,0.145,0.9226,-0.0076,18.6947,0.374,0,0,0
-0.2119,0.1379,0.9224,-3.9847,16.5496,-1.771,0,0,0
-0.2207,0.1272,0.9468,-8.4122,16.0992,-2.8855,0,0,0
-0.2317,0.1106,0.9512,-10.5954,16.1069,-2.9924,0,0,0
-0.2527,0.1155,0.96,-11.1756,16.5114,-1.6794,0,0,0
-0.2559,0.0923,0.9756,-9.5344,16.4733,-0.374,0,0,0
-0.2676,0.1021,0.9888,-8.458,16.9237,1.2137,0,0,0
-0.2747,0.0889,0.9832,-5.3893,16.4351,2.7176,0,0,0
-0.2808,0.0938,0.9788,-1.6947,14.1756,4.3969,0,0,0
-0.2764,0.0962,0.9702,1.0763,11.2519,5.6641,0,0,0
-0.2629,0.1177,0.9587,3.084,7.458,6.4275,0,0,0
-0.2488,0.1255,0.95,3.2366,4.145,5.4962,0,0,0
-0.2368,0.1367,0.9573,2.3664,3.2595,3.4504,0,0,0
-0.229,0.144,0.9485,2.1527,2.8244,2.5115,0,0,0
-0.2339,0.1553,0.9597,1.4351,2.1985,1.0611,0,0,0
-0.2446,0.1387,0.9634,0.0611,1.6107,-0.2824,0,0,0
-0.2566,0.1345,0.9607,-0.9847,1.2366,-0.4885,0,0,0
-0.27,0.1367,0.9692,-1.9237,0.916,0.3435,0,0,0
-0.2686,0.1367,0.9758,-1.6183,0.4885,1.855,0,0,0
-0.2583,0.1426,0.9729,-0.916,-0.1603,2.229,0,0,0
-0.2471,0.1526,0.9739,0.0305,-1.5878,1.2443,0,0,0
-0.2441,0.1523,0.9714,-0.0611,-3.1756,-1.0,0,0,0
-0.2559,0.1501,0.9714,0.3664,-4.7099,-2.1985,0,0,0
-0.2651,0.1514,0.9795,0.1908,-5.4885,-2.5115,0,0,0
-0.2676,0.1492,0.9893,-0.5649,-4.6947,-2.0992,0,0,0
-0.2676,0.1511,0.9958,-0.7099,-2.5954,-0.9924,0,0,0
-0.2625,0.145,1.0005,-1.4733,-0.4351,0.2595,0,0,0
-0.2588,0.1541,0.9963,-2.145,0.7099,0.3435,0,0,0
-0.2493,0.1545,0.9927,-2.1298,0.8931,-0.2748,0,0,0
-0.2532,0.1572,0.9922,-1.542,0.3359,-1.7634,0,0,0
-0.2517,0.1555,0.9863,-1.7176,-0.6107,-3.5344,0,0,0
-0.2485,0.1423,0.9814,0.3664,-1.8168,-3.7023,0,0,0
-0.2607,0.1462,0.9858,-1.0611,-1.7863,-5.0534,0,0,0
-0.2637,0.1353,0.9868,-1.0611,-1.5496,-4.374,0,0,0
-0.2678,0.1523,1.0017,-1.7634,0.2366,-3.6718,0,0,0
-0.2703,0.126,1.0059,-1.2443,3.0458,-2.1374,0,0,0
-0.2654,0.1367,0.9893,-0.2977,4.374,-0.5344,0,0,0
-0.2637,0.1514,0.9802,0.8855,3.4275,-0.3435,0,0,0
-0.2556,0.1497,0.9683,0.1603,1.2366,-1.687,0,0,0
-0.2471,0.1377,0.9687,-0.5573,-1.3511,-3.916,0,0,0
-0.252,0.1433,0.9736,-0.3435,-2.7481,-5.3511,0,0,0
-0.2642,0.1392,0.9822,-0.9237,-2.7405,-5.458,0,0,0
-0.272,0.1284,0.9922,-1.2137,-1.4809,-4.687,0,0,0
-0.2756,0.1233,0.9939,-0.229,0.7176,-2.6031,0,0,0
-0.2783,0.1292,0.979,0.4733,2.145,-0.2366,0,0,0
-0.2727,0.1284,0.9656,-0.4351,2.1832,0.9771,0,0,0
-0.259,0.1375,0.9541,-1.4122,0.7176,0.9008,0,0,0
-0.2498,0.137,0.9541,-2.8473,-1.6107,-0.2061,0,0,0
-0.2539,0.1421,0.958,-4.0382,-3.6183,-1.4885,0,0,0
-0.2532,0.1443,0.9619,-4.1985,-4.6718,-1.6794,0,0,0
-0.2615,0.1353,0.9949,-4.8855,-3.7786,-1.9771,0,0,0
-0.2659,0.1335,0.9985,-3.6107,-2.2061,-0.7252,0,0,0
-0.2717,0.1274,0.9976,-2.7405,-0.1298,1.2595,0,0,0
-0.2698,0.134,0.9897,-1.7557,0.3511,2.313,0,0,0
-0.2632,0.1389,0.9827,-1.3817,-0.0305,2.5954,0,0,0
-0.2527,0.1414,0.9775,-1.2137,-1.084,2.1908,0,0,0
-0.2512,0.1504,0.968,-1.4733,-2.229,1.2901,0,0,0
-0.2407,0.1516,0.9795,-2.2137,-3.5954,-0.3511,0,0,0
-0.2498,0.1472,0.9893,-3.3817,-3.2824,-1.2519,0,0,0
-0.2529,0.144,0.9922,-2.3588,-2.4733,-1.1908,0,0,0
-0.2583,0.1458,1.0042,-1.0458,-1.5954,-0.2366,0,0,0
-0.2581,0.1453,1.0071,-0.4122,-0.3053,0.1374,0,0,0
-0.2529,0.1472,0.9929,0.1527,-0.1145,-0.0687,0,0,0
-0.2537,0.1499,0.9827,0.3664,-0.1832,-0.6489,0,0,0
-0.2507,0.1514,0.9729,0.1145,-1.0763,-0.7405,0,0,0
-0.2493,0.1465,0.9712,-0.7405,-1.4962,-1.4809,0,0,0
-0.2527,0.1382,0.9792,-1.6031,-1.6183,-1.7557,0,0,0
-0.2607,0.137,0.9792,-1.5267,-1.3359,-1.1756,0,0,0
-0.262,0.1333,0.991,-1.4733,-1.7328,-0.8626,0,0,0
-0.2661,0.1375,0.9968,-0.9618,-1.4046,-0.6412,0,0,0
-0.2615,0.135,0.9888,-0.4962,-2.1069,-0.2519,0,0,0
-0.2583,0.147,0.9858,-0.855,-2.8015,-0.4504,0,0,0
-0.249,0.1431,0.9807,-1.4122,-2.9084,-0.8244,0,0,0
-0.2527,0.1436,0.9858,-2.6336,-2.3359,-0.9771,0,0,0
-0.251,0.1411,0.9854,-3.5267,-1.4656,-1.313,0,0,0
-0.2605,0.1377,0.9966,-2.7634,-0.8779,-1.2443,0,0,0
-0.259,0.1377,0.9998,-1.8092,-0.4275,-0.7939,0,0,0
-0.2598,0.1404,0.9929,-1.2214,-0.5954,-0.9771,0,0,0
-0.2522,0.1431,0.9875,-2.4275,0.0611,-1.4809,0,0,0
-0.2539,0.1387,0.968,-2.0611,-0.2137,-1.4962,0,0,0
-0.2546,0.1377,0.9851,-2.084,-0.0992,-0.8626,0,0,0
-0.259,0.1382,0.98,-2.2824,-0.7099,-0.5725,0,0,0
-0.2544,0.1392,0.981,-2.1679,-1.9695,-0.7481,0,0,0
-0.2566,0.1389,0.9834,-2.1069,-3.0382,-1.084,0,0,0
-0.2529,0.1416,0.9944,-2.626,-3.2901,-1.4962,0,0,0
-0.2495,0.1433,1.0002,-2.5038,-2.2748,-1.5496,0,0,0
-0.2515,0.144,1.0032,-1.7099,-0.7557,-1.3588,0,0,0
-0.2517,0.1382,0.9937,-0.4962,-0.1985,-0.4351,0,0,0
-0.2561,0.1396,0.9822,0.0916,-0.4809,-0.3053,0,0,0
-0.2493,0.1409,0.9756,0.3588,-1.9695,-0.8473,0,0,0
-0.2483,0.1455,0.9741,-0.3511,-3.3282,-1.5649,0,0,0
-0.2439,0.1411,0.9822,-0.4962,-3.4809,-2.1145,0,0,0
-0.252,0.1421,0.9768,-0.4351,-2.8702,-1.7939,0,0,0
-0.2515,0.1409,0.9841,-1.1679,-1.6336,-1.1756,0,0,0
-0.261,0.1321,0.9905,-0.6718,-0.2061,-0.1374,0,0,0
-0.261,0.1382,0.9778,-0.4198,-0.2519,1.1832,0,0,0
-0.2585,0.1438,0.9783,-0.7786,-1.0687,1.1985,0,0,0
-0.2539,0.1489,0.9797,-0.8473,-2.5725,0.7099,0,0,0
-0.2493,0.1484,0.9739,-1.0992,-3.855,0.0382,0,0,0
-0.249,0.1479,0.9771,-1.1298,-4.7557,-0.3435,0,0,0
-0.2534,0.1477,0.979,-0.9542,-5.626,-0.687,0,0,0
-0.2444,0.1504,0.9956,-1.3969,-5.0458,-0.7328,0,0,0
-0.2407,0.1472,0.9978,-1.3817,-3.5725,-0.374,0,0,0
-0.2454,0.1484,1.0085,-0.4198,-2.0687,0.2672,0,0,0
-0.2424,0.1479,0.9961,0.1298,-1.2061,0.4962,0,0,0
-0.2437,0.1509,0.9849,-0.2061,-1.7557,-0.3893,0,0,0
-0.241,0.1489,0.9829,-0.7328,-3.0382,-1.0153,0,0,0
-0.2388,0.1587,0.9792,-1.916,-3.8321,-1.9695,0,0,0
-0.2415,0.1531,0.9954,-2.8855,-3.3588,-2.7405,0,0,0
-0.2432,0.1448,0.9968,-2.1221,-2.229,-2.2977,0,0,0
-0.2463,0.1492,1.0002,-0.855,-1.0382,-1.8168,0,0,0
-0.2463,0.1443,0.9915,-0.8397,-0.5344,-1.9618,0,0,0
-0.2473,0.1443,0.9893,-0.4656,-0.4275,-2.145,0,0,0
-0.2454,0.1428,0.9802,-0.4427,-0.1603,-1.9618,0,0,0
-0.25,0.1458,0.9785,-1.4427,-0.0382,-1.8855,0,0,0
-0.2439,0.1421,0.9824,-2.5344,0.1603,-1.5878,0,0,0
-0.2483,0.1396,0.991,-2.9771,-0.0229,-1.3817,0,0,0
-0.2512,0.1353,0.9949,-1.9313,-0.2519,-0.8321,0,0,0
-0.2471,0.1406,0.9875,-0.6718,-1.4656,-0.8626,0,0,0
-0.2478,0.1482,0.9968,0.3817,-2.2901,-1.0229,0,0,0
-0.2432,0.1421,0.9871,-0.0229,-2.7939,-1.687,0,0,0
-0.2366,0.1411,0.9895,0.5496,-2.5115,-1.9389,0,0,0
-0.2429,0.1504,0.9819,-0.8168,-2.1145,-1.9771,0,0,0
-0.2463,0.1504,0.9812,-2.6565,-1.3588,-2.1756,0,0,0
-0.2483,0.1475,0.9856,-3.7557,-0.0611,-1.5038,0,0,0
-0.2534,0.1445,0.9797,-3.4656,0.2901,-0.7099,0,0,0
-0.252,0.147,0.9854,-3.2901,-0.1221,0.0153,0,0,0
-0.2424,0.1414,0.9873,-2.458,-1.0,0.0382,0,0,0
-0.2388,0.1477,0.9871,-1.4275,-2.7786,-0.5573,0,0,0
-0.2341,0.1516,1.0076,-0.9542,-4.145,-2.0076,0,0,0
-0.2368,0.1499,0.9995,-0.374,-4.4656,-3.1069,0,0,0
-0.2358,0.1504,0.9983,0.8321,-3.7786,-3.3206,0,0,0
-0.2383,0.1458,0.9924,0.5038,-2.5267,-2.5802,0,0,0
-0.2449,0.1465,0.978,0.1069,-2.145,-1.6718,0,0,0
-0.2415,0.1526,0.9741,-1.7252,-2.313,-1.9542,0,0,0
-0.2468,0.1494,0.9785,-2.626,-3.4351,-2.3282,0,0,0
-0.2415,0.1523,0.9875,-3.2443,-4.7634,-2.5802,0,0,0
-0.2388,0.1482,0.9807,-2.8168,-5.1374,-2.5954,0,0,0
-0.2314,0.1484,0.9934,-2.0229,-5.2595,-2.9771,0,0,0
-0.2332,0.1423,0.9775,-2.8473,-5.1679,-2.855,0,0,0
-0.2388,0.1416,0.9841,-3.4122,-5.7023,-2.5649,0,0,0
-0.2375,0.1387,0.981,-3.9695,-6.1603,-2.6794,0,0,0
-0.2451,0.1387,0.9851,-4.4962,-7.1832,-2.5573,0,0,0
-0.2449,0.1309,0.9895,-4.8092,-7.9389,-1.855,0,0,0
-0.2434,0.1282,1.0017,-3.0763,-8.2977,-0.9924,0,0,0
-0.2458,0.1326,0.9929,-0.9466,-8.6947,-0.542,0,0,0
-0.2388,0.1326,0.9893,-0.3053,-10.0229,-0.0305,0,0,0
-0.2468,0.1396,0.9868,-0.2061,-12.7176,1.9084,0,0,0
-0.2388,0.1272,0.9998,-0.1145,-12.9313,1.4733,0,0,0
-0.2263,0.1357,0.9749,1.9008,-15.1374,2.0076,0,0,0
-0.2275,0.1443,0.9668,1.855,-19.2443,1.6183,0,0,0
-0.2295,0.1504,0.979,0.6107,-23.6794,1.2595,0,0,0
-0.2273,0.1367,1.011,0.5496,-24.8473,1.8244,0,0,0
-0.2126,0.1448,1.0273,2.8626,-23.8702,3.1069,0,0,0
-0.1953,0.136,1.0103,5.2519,-22.9389,4.1374,0,0,0
-0.1936,0.1516,0.9871,6.8702,-24.6641,4.1908,0,0,0
-0.1948,0.1641,0.9727,5.626,-29.458,3.7557,0,0,0
-0.1956,0.1692,0.9849,3.1603,-34.2824,2.542,0,0,0
-0.1853,0.1643,1.0173,1.5344,-36.9313,2.2672,0,0,0
-0.1772,0.1541,1.0669,3.1069,-34.6565,3.2672,0,0,0
-0.1655,0.1584,1.0437,6.3817,-30.7405,5.1756,0,0,0
-0.1597,0.1687,1.0442,8.0992,-27.0076,6.6641,0,0,0
-0.1399,0.1707,1.0051,7.3511,-25.313,6.8779,0,0,0
-0.1289,0.1741,0.9539,7.2137,-27.626,6.1221,0,0,0
-0.1211,0.1982,0.9431,4.3206,-32.626,3.5496,0,0,0
-0.115,0.1921,0.9712,-1.6107,-34.8168,-0.0611,0,0,0
-0.1077,0.1887,1.0103,-5.3817,-30.6183,-3.8321,0,0,0
-0.0972,0.1626,1.0508,-7.2443,-22.9237,-4.8015,0,0,0
-0.1238,0.1604,1.0747,-7.3511,-13.0611,-3.0382,0,0,0
-0.1299,0.1553,1.0559,-4.2901,-5.145,-0.5649,0,0,0
-0.1335,0.1555,1.0005,-3.3206,-2.5878,0.9084,0,0,0
-0.1389,0.1631,0.9509,-3.5115,-7.2977,1.9389,0,0,0
-0.1375,0.1726,0.9446,-7.3206,-13.4046,0.5496,0,0,0
-0.136,0.1694,0.9727,-11.5649,-17.8855,-0.771,0,0,0
-0.1187,0.1436,1.0063,-11.2824,-19.0763,-0.9466,0,0,0
-0.1221,0.1379,1.0186,-10.2595,-17.5725,1.0229,0,0,0
-0.1216,0.1448,1.0298,-7.2137,-18.1603,2.2137,0,0,0
-0.1147,0.1375,1.0474,-3.7176,-17.626,3.3817,0,0,0
-0.1101,0.1396,1.0215,1.4122,-18.9618,3.9008,0,0,0
-0.0991,0.1531,1.0032,4.2595,-22.1374,3.0763,0,0,0
-0.0854,0.1584,1.0088,2.3817,-23.5649,1.7023,0,0,0
-0.0781,0.1597,1.022,0.0992,-21.2366,0.229,0,0,0
-0.062,0.1531,0.9966,-1.9618,-16.7328,-1.2443,0,0,0
-0.0676,0.1565,0.9988,-4.6947,-13.3969,-1.2214,0,0,0
-0.074,0.1528,1.0007,-6.0229,-11.6031,-1.5496,0,0,0
-0.0889,0.1548,1.0095,-6.1756,-12.0458,-1.4275,0,0,0
-0.0923,0.1477,1.0066,-5.6565,-12.9771,-1.4122,0,0,0
-0.0945,0.1382,1.0198,-3.9237,-14.6183,-0.4962,0,0,0
-0.0918,0.1309,1.0325,-2.916,-14.3282,1.145,0,0,0
-0.0757,0.1387,1.0378,-1.3435,-13.3282,1.8702,0,0,0
-0.0547,0.1414,1.0056,-1.2366,-12.1374,2.5496,0,0,0
-0.0527,0.1582,1.0103,-1.3206,-12.2519,1.9084,0,0,0
-0.0461,0.1602,1.0178,-3.2061,-11.7557,0.1908,0,0,0
-0.0496,0.1438,1.0042,-2.4046,-10.7099,-0.4809,0,0,0
-0.0559,0.1567,1.0188,-0.0076,-11.1374,-1.3053,0,0,0
-0.0525,0.147,1.0164,1.4656,-11.8626,-2.0687,0,0,0
-0.0591,0.1487,1.0071,2.8779,-13.6794,-2.8397,0,0,0
-0.0576,0.1514,1.0144,2.8473,-14.1221,-3.2901,0,0,0
-0.0564,0.1487,1.0127,3.0534,-13.6183,-3.2901,0,0,0
-0.0532,0.1497,1.02,2.855,-11.7405,-2.2977,0,0,0
-0.0515,0.158,1.0088,2.3893,-9.7481,-1.6183,0,0,0
-0.0461,0.1575,0.9905,0.5115,-8.9924,-1.2977,0,0,0
-0.0549,0.1565,0.9465,-2.3053,-11.1832,-0.8702,0,0,0
-0.0579,0.1609,0.979,-7.0992,-13.3206,-0.5191,0,0,0
-0.054,0.1472,1.0254,-9.6107,-11.9389,0.3511,0,0,0
-0.0488,0.1409,1.0537,-8.0305,-8.4733,1.9847,0,0,0
-0.042,0.1414,1.0576,-5.1298,-3.8015,3.6947,0,0,0
-0.0415,0.147,1.0298,-1.9695,-2.3969,5.1985,0,0,0
-0.0361,0.1589,1.0107,-1.5496,-3.7634,5.7481,0,0,0
-0.0281,0.1594,0.9839,-1.5725,-8.8931,3.4351,0,0,0
-0.0298,0.1685,0.9963,-2.0229,-14.2519,0.8168,0,0,0
-0.0146,0.1641,1.0322,-2.2977,-17.0611,-1.2748,0,0,0
-0.0154,0.1545,1.0586,-0.7634,-14.687,-1.5878,0,0,0
-0.0063,0.1526,1.0652,0.7863,-8.8397,-0.8015,0,0,0
-0.0046,0.1516,1.074,1.9084,-2.0153,0.1374,0,0,0
-0.0083,0.1541,1.0469,2.3359,3.0534,0.4198,0,0,0
-0.0088,0.1555,1.0229,1.3969,4.9008,-0.2214,0,0,0
-0.0208,0.1528,0.9771,0.1069,1.2748,-1.2595,0,0,0
-0.0291,0.1643,0.9929,-2.8321,-3.8092,-2.8397,0,0,0
-0.0313,0.1558,1.0146,-4.1221,-6.6794,-3.084,0,0,0
-0.0308,0.1523,1.0244,-2.916,-7.1679,-2.4809,0,0,0
-0.0281,0.1548,1.0532,-2.1908,-4.7557,-1.1908,0,0,0
-0.0234,0.1533,1.0505,-1.8855,-1.2901,-0.2137,0,0,0
-0.0227,0.1602,1.0471,-1.3893,1.145,0.0229,0,0,0
-0.0186,0.1548,1.0322,-1.3282,2.7023,-0.2824,0,0,0
-0.0186,0.1565,1.0037,-0.2366,1.7939,-0.8626,0,0,0
-0.0183,0.1621,1.0083,-0.4046,-0.4198,-2.0153,0,0,0
-0.0237,0.156,1.002,-0.8168,-2.5038,-2.5191,0,0,0
-0.0205,0.1597,1.022,-0.6031,-3.4275,-3.0076,0,0,0
-0.02,0.1572,1.0134,-0.8244,-3.0611,-3.2901,0,0,0
-0.0215,0.1538,1.0159,-1.1832,-1.8321,-2.8321,0,0,0
-0.021,0.1562,1.0205,-1.6718,-0.2824,-1.8855,0,0,0
-0.0208,0.1606,1.0244,-2.0611,0.8931,-1.4733,0,0,0
-0.022,0.1543,1.0354,-1.5878,2.4275,-1.0076,0,0,0
-0.0159,0.1416,1.0024,-0.4351,2.7405,-0.6489,0,0,0
-0.0264,0.1628,0.9946,-0.5496,-0.0611,-0.9237,0,0,0
-0.0208,0.1631,1.0178,-3.0916,-2.7863,-1.5496,0,0,0
-0.0193,0.1514,1.0312,-3.5115,-3.1756,-2.0382,0,0,0
-0.0159,0.1494,1.04,-2.2672,-1.5191,-1.9389,0,0,0
-0.0164,0.1548,1.0222,-1.0458,0.3817,-0.9542,0,0,0
-0.0178,0.1567,1.0173,-0.8855,1.2519,-1.1908,0,0,0
-0.022,0.1636,1.0066,-2.7786,1.1527,-1.7023,0,0,0
-0.03,0.1567,1.0063,-4.458,0.0153,-2.0229,0,0,0
-0.0366,0.1555,1.02,-4.4351,-0.8473,-1.8168,0,0,0
-0.0325,0.1494,1.0327,-3.9847,-0.1069,-0.8702,0,0,0
-0.0286,0.1575,1.0315,-2.4198,-0.1985,-0.2901,0,0,0
-0.0234,0.1582,1.0242,-1.855,-0.229,-0.1908,0,0,0
-0.0222,0.1528,1.0225,-1.1374,-0.5191,-0.6565,0,0,0
-0.0171,0.1509,1.0178,0.2519,-1.3969,-1.7023,0,0,0
-0.0156,0.1575,1.0132,0.5878,-1.7939,-2.5038,0,0,0
-0.0178,0.1511,1.0112,0.2366,-1.2061,-2.771,0,0,0
-0.0186,0.1577,1.0037,-1.0382,-1.0992,-2.4427,0,0,0
-0.0327,0.1604,1.01,-2.7405,-1.0534,-1.626,0,0,0
-0.0313,0.1575,1.0132,-4.0458,-0.5725,-0.9618,0,0,0
-0.0259,0.1489,1.0339,-4.0,1.3206,-0.1679,0,0,0
-0.0281,0.1533,1.0176,-2.6412,1.0763,0.0992,0,0,0
-0.0278,0.158,1.0215,-2.0076,0.2214,0.0611,0,0,0
-0.0269,0.1479,1.0327,-1.8779,-0.5344,-0.626,0,0,0
-0.0198,0.1545,1.0178,-0.5115,-1.3893,-1.313,0,0,0
-0.0183,0.1606,1.0159,-1.1069,-1.9847,-1.9313,0,0,0
-0.0164,0.158,1.0305,-1.1985,-1.458,-1.8779,0,0,0
-0.0142,0.1577,1.0269,-1.6107,0.2366,-1.5038,0,0,0
-0.02,0.1597,1.0132,-1.4733,1.1374,-0.855,0,0,0
-0.0229,0.1572,1.0181,-2.687,1.1832,-0.7557,0,0,0
-0.0205,0.1545,1.0081,-3.4733,0.9008,-0.8473,0,0,0
-0.0222,0.1548,1.0188,-3.8855,0.145,-1.4198,0,0,0
-0.0237,0.1558,1.0305,-3.4809,0.6183,-1.626,0,0,0
-0.0271,0.1472,1.0283,-1.5649,1.1756,-1.2901,0,0,0
-0.0291,0.1504,1.0161,-0.0458,1.1145,-1.2901,0,0,0
-0.0278,0.1572,1.011,-0.145,0.0,-1.3053,0,0,0
-0.0288,0.1487,1.0107,-0.4885,-1.0076,-1.5878,0,0,0
-0.0227,0.1479,1.0056,-1.0916,-1.3053,-1.3359,0,0,0
-0.0251,0.1514,1.0066,-2.4427,-0.8855,-1.5191,0,0,0
-0.0249,0.1545,1.019,-3.8855,0.1527,-1.1908,0,0,0
-0.031,0.1538,1.0127,-3.7557,0.7176,0.0687,0,0,0
-0.0256,0.1523,1.0247,-3.1069,1.0687,0.6031,0,0,0
-0.0227,0.1506,1.0256,-2.0916,1.2595,0.2672,0,0,0
-0.0232,0.1514,1.0188,-1.0458,-0.3664,-0.2824,0,0,0
-0.0276,0.157,1.0212,-1.3206,-1.5954,-1.5344,0,0,0
-0.0261,0.155,1.0105,-0.9542,-2.4504,-1.3206,0,0,0
-0.0298,0.1514,1.0198,-0.6489,-2.3969,-1.0229,0,0,0
-0.0264,0.1472,1.0198,-1.0,-1.6183,-0.1069,0,0,0
-0.0244,0.1624,1.0203,-2.3588,-0.3664,0.2137,0,0,0
-0.02,0.1575,1.0293,-4.0458,0.3588,0.2061,0,0,0
-0.0151,0.1594,1.0254,-3.6031,0.687,0.2366,0,0,0
-0.019,0.1501,1.0186,-2.2443,0.2824,-0.7328,0,0,0
-0.0205,0.1533,1.021,-0.916,-0.3588,-1.5038,0,0,0
-0.0261,0.157,1.0068,-0.7634,-1.6718,-2.3664,0,0,0
-0.0261,0.147,1.0164,-1.1756,-2.0076,-2.1298,0,0,0
-0.031,0.1479,1.0239,-1.5038,-1.3664,-1.0,0,0,0
-0.0283,0.1553,1.0312,-1.6107,0.2824,-0.0687,0,0,0
-0.0251,0.1521,1.0256,-1.1908,2.3817,0.4962,0,0,0
-0.022,0.1543,1.0161,-1.1603,3.626,0.6947,0,0,0
-0.0247,0.1562,1.0117,-1.916,2.9389,0.1908,0,0,0
-0.0286,0.1582,1.0112,-2.8931,1.6718,-0.4351,0,0,0
-0.0234,0.1565,1.0281,-3.0763,1.3893,-0.7328,0,0,0
-0.0247,0.1548,1.0347,-2.3588,1.5802,-1.0763,0,0,0
-0.0251,0.1511,1.0459,-1.2824,2.5802,-1.2595,0,0,0
-0.0227,0.1565,1.0356,0.7405,3.542,-1.313,0,0,0
-0.0251,0.1616,1.0381,2.1298,4.9466,-1.458,0,0,0
-0.0232,0.1558,1.0381,3.0305,5.9924,-1.5038,0,0,0
-0.0203,0.1565,1.033,3.9008,6.7252,-2.0,0,0,0
-0.0122,0.1621,1.0356,5.3511,7.4885,-3.145,0,0,0
-0.0098,0.1682,1.0054,7.3893,6.2595,-4.7557,0,0,0
-0.0017,0.1797,1.0149,8.0076,3.9695,-7.4351,0,0,0
0.0005,0.1855,1.0315,7.6565,3.0992,-10.6641,0,0,0
0.012,0.1851,1.0593,9.5267,4.1985,-13.8931,0,0,0
0.0266,0.1936,1.0854,12.9847,7.5191,-17.084,0,0,0
0.0645,0.2192,1.0957,17.374,11.6641,-21.9389,0,0,0
0.0938,0.2458,1.1079,21.0916,16.771,-30.2824,0,0,0
0.1113,0.2532,1.1155,26.1221,21.4733,-40.8779,0,0,0
0.0989,0.2437,1.1042,32.0382,25.0,-52.4656,0,0,0
0.0835,0.241,1.0544,37.0992,24.3817,-63.4962,0,0,0
0.0413,0.2485,1.0208,41.1069,19.7023,-72.7023,0,0,0
0.0015,0.2505,1.0122,41.9084,14.458,-79.6412,0,0,0
-0.0486,0.2183,1.021,43.0,11.2137,-82.7099,0,0,0
-0.0798,0.2197,1.0098,44.916,10.5725,-82.3206,0,0,0
-0.1079,0.2178,1.0088,43.9771,11.5038,-79.1832,0,0,0
-0.1396,0.2112,0.9766,41.9466,13.6794,-74.6794,0,0,0
-0.1548,0.2207,0.9575,36.1908,15.1374,-70.0611,0,0,0
-0.1858,0.2112,0.9309,31.0153,14.7863,-63.2214,0,0,0
-0.1973,0.2156,0.9209,25.1985,14.0305,-56.2595,0,0,0
-0.2036,0.2166,0.9202,18.2672,13.6794,-49.4275,0,0,0
-0.1921,0.2156,0.916,14.2137,13.2519,-43.0687,0,0,0
-0.1792,0.2175,0.9133,10.4504,12.3893,-37.9084,0,0,0
-0.1797,0.2283,0.9072,6.6489,9.9008,-34.626,0,0,0
-0.1816,0.2288,0.9041,2.5725,6.5344,-32.4962,0,0,0
-0.1855,0.2236,0.9346,-0.8015,3.9237,-30.4275,0,0,0
-0.1743,0.2078,0.9646,-1.7405,2.3435,-27.9084,0,0,0
-0.1675,0.2092,0.9744,0.5115,2.5573,-25.7863,0,0,0
-0.1558,0.2119,0.9763,2.145,2.0382,-23.9237,0,0,0
-0.1616,0.2202,0.9829,2.2061,2.0763,-22.9389,0,0,0
-0.1624,0.2146,0.9829,2.9008,0.9542,-22.1756,0,0,0
-0.1619,0.2144,0.9927,3.8779,0.3969,-21.4198,0,0,0
-0.1682,0.2153,0.9753,3.4733,0.0763,-20.1145,0,0,0
-0.1782,0.2136,0.9739,2.1832,0.4733,-18.3359,0,0,0
-0.1787,0.2124,0.9814,1.2366,0.7328,-15.4122,0,0,0
-0.1926,0.2129,0.9866,0.313,1.0916,-12.2137,0,0,0
-0.1963,0.2061,0.9932,-0.1221,1.8321,-8.1603,0,0,0
-0.2083,0.2034,0.9958,-0.5878,2.3588,-4.0916,0,0,0
-0.2004,0.2107,0.9978,0.458,2.687,0.0916,0,0,0
-0.1865,0.2229,0.988,0.3282,2.3359,3.2366,0,0,0
-0.1765,0.2297,0.9836,0.6107,1.0,5.0763,0,0,0
-0.1477,0.248,0.9897,0.374,-0.0153,4.7863,0,0,0
-0.1343,0.2593,0.9912,0.2672,-0.3053,2.9466,0,0,0
-0.1304,0.2627,1.0093,0.5344,0.6489,0.9084,0,0,0
-0.1316,0.2671,1.0044,1.5115,1.0076,-0.1603,0,0,0
-0.1372,0.2683,1.0161,2.8015,1.8931,-1.0229,0,0,0
-0.135,0.2849,1.011,5.0229,2.3206,-2.0916,0,0,0
-0.1274,0.2842,1.0007,6.8931,2.2748,-4.1603,0,0,0
-0.1421,0.2891,0.9846,6.7328,2.7557,-6.4198,0,0,0
-0.1526,0.282,0.9707,5.542,2.8015,-8.0687,0,0,0
-0.1711,0.2705,0.9607,3.3511,2.855,-7.1527,0,0,0
-0.179,0.2627,0.9624,0.6641,2.9924,-5.6718,0,0,0
-0.1877,0.2595,0.9741,-1.5649,4.2214,-3.6718,0,0,0
-0.198,0.2473,0.9753,-3.4351,5.8321,-1.687,0,0,0
-0.2131,0.2419,0.9683,-5.7099,6.2137,1.229,0,0,0
-0.2253,0.2327,0.9719,-6.771,5.916,4.9389,0,0,0
-0.2356,0.2249,0.9788,-8.5649,5.1908,9.4809,0,0,0
-0.2524,0.2156,0.978,-12.2366,5.0,15.4122,0,0,0
-0.2947,0.1997,0.9832,-19.2519,6.0534,22.9618,0,0,0
-0.3401,0.187,1.0059,-28.0763,10.7481,33.8855,0,0,0
-0.3604,0.1604,1.0046,-33.2061,15.4885,49.2061,0,0,0
-0.3569,0.1577,0.98,-33.9237,17.8931,66.4275,0,0,0
-0.3413,0.155,0.9719,-34.0992,17.5802,81.7023,0,0,0
-0.2898,0.155,0.9463,-32.8702,12.9618,93.0076,0,0,0
-0.2109,0.1816,0.9316,-31.8321,4.2977,97.5496,0,0,0
-0.1436,0.219,0.9268,-33.2061,-5.9313,94.5649,0,0,0
-0.0645,0.2354,0.9387,-34.8931,-13.2824,86.7252,0,0,0
-0.0134,0.241,0.9644,-37.916,-15.1832,77.626,0,0,0
0.0042,0.2532,0.9961,-43.3435,-11.4046,67.8321,0,0,0
-0.0249,0.2485,1.0229,-49.4427,-2.5038,61.0534,0,0,0
-0.0427,0.2302,1.0498,-54.0153,7.8855,57.6489,0,0,0
-0.0583,0.2192,1.0527,-53.8779,18.6107,57.2595,0,0,0
-0.0569,0.228,1.0479,-51.5878,26.1145,56.2214,0,0,0
-0.0579,0.2209,1.0298,-49.7099,29.6794,52.6183,0,0,0
-0.0723,0.217,1.0234,-47.8473,28.8015,46.6031,0,0,0
-0.095,0.1987,1.0278,-46.3282,25.6641,39.6412,0,0,0
-0.1248,0.1792,1.0298,-45.6489,22.458,34.4351,0,0,0
-0.1711,0.1418,1.0483,-46.2366,21.3282,33.0992,0,0,0
-0.219,0.1282,1.0654,-46.9847,23.458,36.3969,0,0,0
-0.2285,0.104,1.0364,-43.1756,26.4733,44.4885,0,0,0
-0.2222,0.1045,1.0049,-40.313,27.1221,53.4809,0,0,0
-0.2307,0.1147,0.9915,-40.4427,26.1985,60.2214,0,0,0
-0.1968,0.1187,0.9705,-40.9008,22.4885,64.145,0,0,0
-0.1787,0.1389,0.9749,-44.2214,18.5802,64.4046,0,0,0
-0.1484,0.1375,0.9822,-46.6412,15.3053,62.1145,0,0,0
-0.126,0.145,0.9951,-49.2061,15.5115,60.1832,0,0,0
-0.1218,0.1409,1.0002,-52.687,17.3511,57.458,0,0,0
-0.1287,0.1472,1.0046,-58.7786,21.1603,54.0687,0,0,0
-0.1497,0.1045,1.0176,-64.4351,26.7023,52.9008,0,0,0
-0.1816,0.103,1.0269,-69.374,33.2748,53.4427,0,0,0
-0.1621,0.0999,1.0056,-69.3359,38.5573,54.084,0,0,0
-0.126,0.106,1.0073,-69.2519,42.0763,51.6107,0,0,0
-0.1038,0.1125,0.9932,-70.0382,43.8626,44.7634,0,0,0
-0.0903,0.1086,0.9924,-72.0992,45.4198,34.0992,0,0,0
-0.0947,0.0935,1.0059,-74.458,47.2366,22.7099,0,0,0
-0.1331,0.0554,1.0291,-75.4657,50.2137,13.6489,0,0,0
-0.1709,0.0332,1.0464,-72.8626,54.2137,6.3817,0,0,0
-0.2166,-0.0071,1.0566,-69.0382,58.0687,3.3359,0,0,0
-0.2607,-0.0242,1.0422,-62.5802,60.5267,2.5038,0,0,0
-0.2935,-0.0488,1.03,-56.4198,60.7939,3.626,0,0,0
-0.3164,-0.0676,1.0093,-47.8702,57.8244,6.1679,0,0,0
-0.3308,-0.0857,0.9829,-40.3588,51.0,9.2672,0,0,0
-0.345,-0.0684,0.9624,-33.5267,41.8473,10.2672,0,0,0
-0.345,-0.0864,0.9602,-27.1985,32.4885,10.0763,0,0,0
-0.3572,-0.0957,0.9702,-22.7328,24.1603,9.9618,0,0,0
-0.3699,-0.0984,0.9675,-17.2214,17.374,10.3511,0,0,0
-0.3787,-0.1138,0.9509,-13.0763,11.9847,12.7328,0,0,0
-0.3699,-0.1057,0.9426,-10.3588,7.6565,16.0,0,0,0
-0.3486,-0.0999,0.9407,-9.8473,5.6183,18.1603,0,0,0
-0.3237,-0.0852,0.9429,-11.0916,6.0076,18.3817,0,0,0
-0.3047,-0.0771,0.938,-13.6947,8.2748,16.2901,0,0,0
-0.2852,-0.0686,0.9375,-16.7557,10.7863,13.2672,0,0,0
-0.2771,-0.0654,0.9431,-17.7023,12.1145,8.7863,0,0,0
-0.2788,-0.0654,0.9646,-17.0153,13.3969,3.3053,0,0,0
-0.2866,-0.0737,0.9714,-13.7252,13.0153,-2.9847,0,0,0
-0.2957,-0.0801,0.9822,-7.1527,10.1832,-8.1985,0,0,0
-0.303,-0.0791,0.9756,-0.9008,5.5344,-13.6489,0,0,0
-0.3174,-0.0874,0.968,4.6107,-0.1832,-18.1832,0,0,0
-0.3433,-0.1033,0.9663,8.0,-5.5649,-20.8015,0,0,0
-0.3613,-0.0947,0.9753,11.6794,-8.9771,-21.0611,0,0,0
-0.3623,-0.0918,0.9775,17.1679,-11.2443,-18.916,0,0,0
-0.3501,-0.0859,0.9766,22.6183,-13.771,-16.7634,0,0,0
-0.3271,-0.0691,0.9673,28.1908,-17.084,-16.4504,0,0,0
-0.3047,-0.054,0.9761,33.1527,-20.9084,-19.4962,0,0,0
-0.2837,-0.0491,0.9873,37.3969,-24.7786,-24.7023,0,0,0
-0.252,-0.0374,0.9973,45.4962,-29.6718,-31.0916,0,0,0
-0.2236,-0.0225,0.9993,55.9924,-35.2977,-39.0076,0,0,0
-0.1946,-0.0032,1.0093,67.4657,-41.4733,-47.9924,0,0,0
-0.1685,0.009,1.0256,76.8321,-46.3053,-58.4809,0,0,0
-0.1638,0.0054,1.0662,82.4886,-47.7405,-69.6794,0,0,0
-0.1721,-0.0105,1.1353,85.3511,-42.7863,-78.4275,0,0,0
-0.2034,-0.0093,1.2078,87.7176,-28.6412,-84.2672,0,0,0
-0.209,0.0044,1.2505,92.7176,-8.2366,-86.6489,0,0,0
-0.2002,-0.0156,1.2527,102.0153,14.5878,-85.5954,0,0,0
-0.2205,0.0139,1.1826,112.4504,31.542,-83.1527,0,0,0
-0.239,0.0276,1.0745,119.5267,38.7405,-81.9084,0,0,0
-0.2437,0.0481,0.9922,121.5496,36.229,-82.3511,0,0,0
-0.2625,0.0649,0.9763,118.8931,31.2519,-84.9924,0,0,0
-0.2859,0.0889,0.9709,110.5191,27.9847,-89.6412,0,0,0
-0.3132,0.0896,0.9617,100.9008,28.8168,-92.2137,0,0,0
-0.3376,0.0752,0.9229,92.4504,30.0534,-89.5344,0,0,0
-0.373,0.0825,0.8994,85.7786,30.9008,-81.9847,0,0,0
-0.4451,0.1252,0.8269,79.9618,27.4275,-69.5573,0,0,0
-0.4448,0.1116,0.8743,69.3817,20.9924,-62.6412,0,0,0
-0.4473,0.1082,0.8684,66.084,16.7328,-55.2443,0,0,0
-0.4453,0.1196,0.8521,62.8092,11.1985,-50.2901,0,0,0
-0.4265,0.1409,0.8635,56.3435,6.4733,-46.6412,0,0,0
-0.4287,0.1445,0.8713,49.5038,5.0153,-43.1908,0,0,0
-0.428,0.1616,0.9385,43.5954,7.6641,-37.9389,0,0,0
-0.4226,0.1506,0.9539,40.626,15.0153,-32.8779,0,0,0
-0.4045,0.1721,0.9648,36.542,24.542,-27.9847,0,0,0
-0.3938,0.1877,0.9536,31.9237,31.916,-24.3893,0,0,0
-0.3999,0.1909,0.916,31.3359,34.7863,-21.3588,0,0,0
-0.4133,0.1948,0.8884,30.0687,33.0305,-19.8702,0,0,0
-0.4351,0.1934,0.8762,26.5725,28.6183,-18.3511,0,0,0
-0.4373,0.1917,0.8989,23.9466,27.0382,-17.9618,0,0,0
-0.427,0.2063,0.9268,22.2214,27.8168,-16.916,0,0,0
-0.4287,0.2065,0.9341,21.9618,30.8168,-14.0992,0,0,0
-0.4346,0.218,0.9583,23.0534,35.6412,-11.1603,0,0,0
-0.4458,0.2263,0.9512,25.084,41.3435,-9.0916,0,0,0
-0.4255,0.2393,0.9299,25.4427,45.687,-10.4046,0,0,0
-0.439,0.2568,0.8855,24.6565,45.0382,-8.1985,0,0,0
-0.4382,0.2202,0.8813,26.4427,42.4656,-9.458,0,0,0
-0.4568,0.251,0.8591,27.3588,37.2824,-8.4809,0,0,0
-0.4495,0.2986,0.9263,26.145,39.0687,-10.5954,0,0,0
-0.4873,0.2837,0.8374,22.0229,27.6412,-12.9771,0,0,0
-0.4834,0.272,0.8518,22.5725,26.8168,-10.8931,0,0,0
-0.49,0.2903,0.8914,22.771,27.2366,-10.4275,0,0,0
-0.4863,0.2869,0.8818,22.4962,29.9618,-10.6412,0,0,0
-0.4817,0.2988,0.8503,25.2672,29.8931,-8.9084,0,0,0
-0.4741,0.3037,0.8333,26.374,28.0916,-9.0382,0,0,0
-0.4678,0.3091,0.7922,26.8779,23.3359,-11.3664,0,0,0
-0.4629,0.3164,0.7998,25.3511,17.6565,-15.687,0,0,0
-0.4692,0.3152,0.7937,21.8015,13.4733,-20.4427,0,0,0
-0.4841,0.2949,0.8044,19.8626,10.3664,-23.2824,0,0,0
-0.5027,0.2822,0.7988,19.0534,9.2366,-23.2519,0,0,0
-0.5237,0.2749,0.782,18.4351,9.6183,-22.5802,0,0,0
-0.5349,0.2686,0.7556,16.2748,8.8855,-20.3435,0,0,0
-0.5444,0.262,0.7327,12.542,7.2443,-18.1679,0,0,0
-0.5576,0.2551,0.7117,9.0382,4.1221,-16.6031,0,0,0
-0.5713,0.2466,0.7131,2.5344,1.6947,-14.1985,0,0,0
-0.5725,0.2439,0.7285,-2.374,0.4733,-11.687,0,0,0
-0.574,0.24,0.7407,-5.542,-0.2061,-7.8626,0,0,0
-0.5591,0.2393,0.7747,-7.6183,0.3053,-3.6183,0,0,0
-0.543,0.2388,0.7966,-7.2443,1.3817,-0.626,0,0,0
-0.5029,0.2622,0.8162,-3.8321,1.1756,0.3206,0,0,0
-0.4893,0.2712,0.8162,-0.084,-2.4809,-1.916,0,0,0
-0.4814,0.2961,0.8235,3.2672,-7.8779,-6.0305,0,0,0
-0.4817,0.3,0.8437,6.1756,-12.3206,-9.9084,0,0,0
-0.4729,0.3091,0.8591,11.0382,-15.7099,-13.626,0,0,0
-0.4663,0.3313,0.9124,14.2977,-14.2595,-17.3435,0,0,0
-0.4558,0.3325,0.927,17.0305,-8.1374,-22.626,0,0,0
-0.4685,0.3323,0.908,22.2748,-3.6641,-23.1145,0,0,0
-0.4917,0.3286,0.8816,25.6947,-1.8015,-23.2824,0,0,0
-0.5115,0.3242,0.8711,27.0076,-0.9618,-24.1527,0,0,0
-0.5239,0.3069,0.8506,27.6183,-0.0611,-26.0076,0,0,0
-0.5496,0.2874,0.8203,27.3359,-0.5344,-26.3664,0,0,0
-0.564,0.2778,0.7839,26.4046,-1.7176,-24.7557,0,0,0
-0.574,0.2651,0.7729,24.0076,-3.1985,-22.0305,0,0,0
-0.5879,0.2539,0.7537,20.0305,-5.4656,-18.5878,0,0,0
-0.6013,0.2449,0.7273,14.374,-7.4275,-15.7023,0,0,0
-0.6108,0.2422,0.7158,5.6641,-9.8092,-11.2519,0,0,0
-0.6243,0.2385,0.7075,-4.5496,-11.5573,-7.2443,0,0,0
-0.6418,0.2456,0.6833,-12.3511,-15.4122,-0.4122,0,0,0
-0.6333,0.2415,0.7114,-21.4885,-18.6107,5.5115,0,0,0
-0.6187,0.229,0.6753,-29.855,-22.8244,11.229,0,0,0
-0.592,0.2371,0.6726,-38.1756,-31.084,15.8626,0,0,0
-0.5613,0.2412,0.6995,-47.5954,-36.9542,18.7481,0,0,0
-0.5693,0.2278,0.7363,-54.2443,-44.1603,24.0458,0,0,0
-0.5554,0.2236,0.7747,-56.2672,-49.7786,30.8702,0,0,0
-0.5447,0.2175,0.8152,-58.4656,-56.6336,34.3435,0,0,0
-0.5068,0.2068,0.8555,-57.6489,-56.0992,37.1145,0,0,0
-0.4929,0.2214,0.9043,-56.626,-56.6947,40.9542,0,0,0
-0.4575,0.2097,0.9324,-53.5496,-55.6031,43.8397,0,0,0
-0.4443,0.2119,0.9685,-48.6565,-51.0916,46.8321,0,0,0
-0.4194,0.2217,0.9565,-42.2977,-48.3435,48.8931,0,0,0
-0.4014,0.2434,0.9534,-38.0,-46.6107,49.2748,0,0,0
-0.3848,0.2522,0.9421,-34.8931,-47.3053,48.5725,0,0,0
-0.3765,0.2441,0.9343,-31.3817,-48.1756,47.0229,0,0,0
-0.3809,0.2422,0.8887,-28.3359,-51.542,46.084,0,0,0
-0.3577,0.2493,0.8821,-28.2901,-56.7099,46.2061,0,0,0
-0.3433,0.251,0.8948,-30.145,-56.8168,45.2366,0,0,0
-0.3308,0.2551,0.8782,-33.8931,-57.0763,44.4733,0,0,0
-0.3101,0.2427,0.9299,-38.4427,-54.2901,44.8168,0,0,0
-0.2813,0.2419,0.9871,-39.7863,-46.229,44.1527,0,0,0
-0.2637,0.2412,1.0103,-39.7634,-37.2672,42.6183,0,0,0
-0.262,0.2332,1.0251,-37.0,-28.374,40.7099,0,0,0
-0.2634,0.2292,0.9695,-32.0229,-23.4351,38.9237,0,0,0
-0.2517,0.2434,0.9534,-30.8931,-23.4656,36.458,0,0,0
-0.2559,0.2456,0.9629,-30.9695,-24.3206,32.1145,0,0,0
-0.2595,0.2261,0.9727,-29.3893,-25.374,28.4656,0,0,0
-0.2854,0.2034,0.9424,-27.8931,-27.5573,26.6031,0,0,0
-0.3237,0.199,0.8726,-29.1527,-34.8092,27.8473,0,0,0
-0.3296,0.1895,0.8828,-34.6336,-40.8779,31.313,0,0,0
-0.3311,0.1624,0.916,-39.1145,-44.3664,37.1679,0,0,0
-0.3171,0.157,0.9456,-44.2061,-43.7939,44.458,0,0,0
-0.2859,0.1414,0.9736,-46.4122,-40.145,51.1527,0,0,0
-0.2471,0.1597,0.9844,-48.5649,-33.7328,55.2595,0,0,0
-0.2136,0.1548,0.8877,-54.2519,-31.0229,55.7786,0,0,0
-0.1941,0.1753,0.854,-65.1679,-36.5649,54.8473,0,0,0
-0.1721,0.1609,0.9534,-78.5954,-36.5954,52.771,0,0,0
-0.176,0.1421,1.0369,-86.1603,-30.1374,50.145,0,0,0
-0.155,0.1079,1.1121,-85.9008,-19.0153,49.1832,0,0,0
-0.1555,0.0793,1.1384,-78.7099,-6.5267,50.5496,0,0,0
-0.1577,0.0601,1.0718,-68.5267,-0.4275,50.7863,0,0,0
-0.1584,0.0591,0.9385,-61.6183,-5.5725,50.9237,0,0,0
-0.1956,0.0767,0.9336,-65.6718,-18.6947,46.5573,0,0,0
-0.2012,0.0459,1.0071,-68.6183,-26.4046,41.2366,0,0,0
-0.1902,0.0137,1.0403,-65.3664,-27.9542,39.8321,0,0,0
-0.1721,0.002,1.0205,-59.6489,-27.6336,41.4198,0,0,0
-0.1619,0.0095,1.0442,-53.7099,-26.4351,43.916,0,0,0
-0.1631,-0.0049,1.0359,-49.0076,-22.8015,44.3588,0,0,0
-0.1594,0.0051,1.0371,-44.4427,-22.5496,42.6794,0,0,0
-0.1472,0.0017,1.0718,-38.6794,-19.2977,39.229,0,0,0
-0.1384,-0.0229,1.0132,-34.7634,-17.3664,35.9084,0,0,0
-0.1392,-0.0049,0.9834,-31.4275,-18.4962,34.313,0,0,0
-0.1384,-0.0151,1.0281,-29.8626,-20.0458,32.6336,0,0,0
-0.1545,-0.0295,1.0559,-25.9466,-19.7863,32.2824,0,0,0
-0.1665,-0.0439,1.0557,-16.4962,-20.687,33.9008,0,0,0
-0.1504,-0.0249,1.0295,-7.9313,-24.0992,35.2519,0,0,0
-0.1221,0.0068,1.0281,-4.374,-27.4656,34.6641,0,0,0
-0.0942,0.0168,1.0386,-3.7023,-28.1908,31.8931,0,0,0
-0.0513,0.0256,1.0396,-3.3969,-27.2595,27.9237,0,0,0
-0.0332,0.0383,1.0632,-2.0458,-25.229,22.5114,0,0,0
-0.011,0.0352,1.1045,0.0382,-19.5038,16.1374,0,0,0
-0.0107,0.0391,1.0767,5.2519,-15.4733,10.4809,0,0,0
-0.0276,0.0554,1.0786,8.8702,-15.0992,4.8779,0,0,0
-0.0408,0.0437,1.0669,12.0916,-14.3969,-0.4504,0,0,0
-0.0649,0.0381,1.052,13.6794,-15.2824,-4.3282,0,0,0
-0.0757,0.0239,1.0225,15.5344,-17.5496,-5.6565,0,0,0
-0.0901,0.0239,1.0303,15.4656,-18.9313,-4.7634,0,0,0
-0.094,0.033,1.0381,13.916,-18.9618,-3.916,0,0,0
-0.0911,0.0303,1.0503,12.6031,-16.9008,-2.5038,0,0,0
-0.0977,0.0347,1.0244,12.5038,-14.8244,-1.2519,0,0,0
-0.0911,0.0378,1.0027,10.2519,-13.7557,-0.5802,0,0,0
-0.0908,0.0464,0.9934,5.7557,-13.6641,-0.2595,0,0,0
-0.0828,0.0342,1.0117,1.6031,-11.5496,0.1603,0,0,0
-0.0796,0.0352,1.0071,-1.3206,-10.084,1.2214,0,0,0
-0.074,0.0444,1.0173,-3.8321,-8.5878,1.7786,0,0,0
-0.0667,0.0364,1.0273,-5.5038,-5.6412,1.7405,0,0,0
-0.0637,0.0408,1.0352,-7.3359,-3.0992,1.855,0,0,0
-0.0537,0.0293,1.0266,-7.5496,-1.4198,1.5878,0,0,0
-0.062,0.0295,1.0308,-7.5878,-2.1221,2.0076,0,0,0
-0.062,0.0249,1.0469,-6.2748,-4.084,1.5496,0,0,0
-0.0601,0.0208,1.0779,-4.1679,-5.0458,0.9008,0,0,0
-0.051,0.0281,1.0737,-1.2443,-6.5878,0.2519,0,0,0
-0.042,0.0259,1.0681,1.3511,-7.0992,-1.0382,0,0,0
-0.0505,0.0325,1.0461,2.229,-8.0992,-2.0763,0,0,0
-0.0488,0.0291,1.0288,2.0076,-9.374,-2.8931,0,0,0
-0.0544,0.0361,1.0115,0.0382,-10.8855,-3.4962,0,0,0
-0.0564,0.0342,1.0251,-2.7557,-10.5344,-3.3206,0,0,0
-0.0535,0.0127,1.0278,-3.7863,-7.7481,-2.2748,0,0,0
-0.0642,0.011,1.0291,-4.6183,-4.9466,-0.5344,0,0,0
-0.0698,0.0127,1.0452,-5.7481,-2.1985,1.0153,0,0,0
-0.0659,0.0127,1.0408,-5.6107,-0.0229,3.0076,0,0,0
-0.0632,0.0146,1.0366,-3.0229,0.1679,4.2137,0,0,0
-0.0559,0.022,1.0229,-0.3893,-1.2977,3.6641,0,0,0
-0.0498,0.0273,1.0007,0.1679,-4.771,2.0687,0,0,0
-0.0532,0.0381,0.9912,-1.9695,-9.1374,-0.0763,0,0,0
-0.0547,0.0256,1.0073,-4.5267,-11.8779,-1.8321,0,0,0
-0.0618,0.0222,1.0325,-5.8092,-11.2214,-1.4046,0,0,0
-0.0591,0.0164,1.0542,-5.3435,-7.4427,0.5649,0,0,0
-0.0579,0.0181,1.072,-5.0229,-2.5344,3.4504,0,0,0
-0.0454,0.019,1.0525,-3.0992,1.4198,4.8321,0,0,0
-0.0422,0.0286,1.0374,-2.0,1.1221,5.0076,0,0,0
-0.0396,0.0354,1.032,-2.3206,-1.0382,2.7099,0,0,0
-0.0332,0.0325,1.0283,-3.229,-4.3664,1.084,0,0,0
-0.0332,0.0315,1.0303,-3.771,-7.1756,-0.4198,0,0,0
-0.0334,0.0295,1.0562,-3.6107,-7.2137,-1.458,0,0,0
-0.0281,0.022,1.0757,-2.687,-4.3359,-2.1069,0,0,0
-0.0366,0.0295,1.0554,-0.8015,-1.7099,-1.2977,0,0,0
-0.0408,0.0325,1.062,-0.9084,0.5191,-1.5496,0,0,0
-0.0393,0.0234,1.0352,-0.3893,1.6031,-1.4809,0,0,0
-0.0444,0.0349,1.0249,0.145,1.0992,-2.2977,0,0,0
-0.0403,0.0286,1.0364,-0.6107,1.542,-2.626,0,0,0
-0.0454,0.02,1.0303,-0.8397,0.7786,-2.3435,0,0,0
-0.0461,0.0227,1.0247,-1.4427,-0.1985,-2.2137,0,0,0
-0.0476,0.0181,1.0254,-1.5038,-0.5802,-1.7176,0,0,0
-0.0505,0.0171,1.0288,-1.5038,-0.9313,-1.3588,0,0,0
-0.0452,0.0156,1.0315,-0.7481,-1.0153,-1.1603,0,0,0
-0.0435,0.0227,1.0312,-0.1603,-0.5038,-1.1985,0,0,0
-0.0383,0.0186,1.0227,0.0534,-0.4122,-1.3053,0,0,0
-0.0413,0.0271,1.0107,-1.0153,-0.9237,-1.5496,0,0,0
-0.0383,0.0256,1.0271,-2.4733,-1.1069,-2.6107,0,0,0
-0.042,0.0139,1.0503,-1.9466,0.0687,-2.0763,0,0,0
-0.0491,0.0166,1.0479,0.6641,1.1908,-1.9695,0,0,0
-0.0508,0.0176,1.0305,1.9008,1.5267,-1.7252,0,0,0
-0.0569,0.0198,0.999,1.9924,-0.6336,-1.084,0,0,0
-0.0537,0.0339,1.0032,-0.0382,-4.084,-1.7939,0,0,0
-0.0542,0.0247,1.0186,-2.0229,-4.2595,-1.9924,0,0,0
-0.043,0.0159,1.0256,-2.0611,-2.3969,-1.0076,0,0,0
-0.0342,0.0237,1.0151,-2.1069,-0.5038,-0.2519,0,0,0
-0.0337,0.0332,1.0127,-3.145,0.0229,-0.313,0,0,0
-0.0405,0.0334,1.0244,-5.2366,0.1374,-1.542,0,0,0
-0.043,0.0227,1.0464,-5.6947,0.9389,-2.3282,0,0,0
-0.0471,0.0203,1.0498,-3.5496,1.3206,-2.1985,0,0,0
-0.0503,0.0161,1.0317,-0.7176,1.5115,-1.3282,0,0,0
-0.0471,0.0154,1.0281,0.9847,0.2519,-0.6107,0,0,0
-0.0471,0.0217,1.0295,0.7557,-1.5878,-0.7863,0,0,0
-0.0454,0.0173,1.0359,0.9542,-2.7252,-1.2977,0,0,0
-0.0457,0.0129,1.0452,0.9695,-2.4351,-2.0534,0,0,0
-0.0466,0.02,1.043,1.9008,-1.9313,-1.9084,0,0,0
-0.0552,0.0229,1.042,1.1069,-1.7099,-1.7328,0,0,0
-0.054,0.0144,1.0173,0.1221,-1.5344,-1.1603,0,0,0
-0.0481,0.0261,1.0315,-0.4962,-1.9771,-0.4962,0,0,0
-0.0471,0.0298,1.0359,-2.1527,-1.5496,-0.687,0,0,0
-0.0457,0.0237,1.0459,-1.9542,-0.5344,-0.9008,0,0,0
-0.0457,0.0156,1.0479,-0.6412,1.1679,-1.084,0,0,0
-0.05,0.0195,1.0459,0.4504,2.2214,-0.7252,0,0,0
-0.0518,0.0242,1.0371,0.8244,1.6336,-0.9008,0,0,0
-0.0552,0.0269,1.0269,0.7481,0.8931,-0.9924,0,0,0
-0.05,0.022,1.012,1.1221,-0.4351,-0.9466,0,0,0
-0.0508,0.0281,1.0063,0.8244,-2.6794,-0.9084,0,0,0
-0.0474,0.0308,1.0298,0.0992,-3.4046,-0.916,0,0,0
-0.0459,0.0256,1.0439,-0.2137,-2.2137,-0.0076,0,0,0
-0.0374,0.0254,1.0364,0.5878,0.0153,0.7405,0,0,0
-0.0327,0.0337,1.0281,-0.1832,1.4809,0.855,0,0,0
-0.0364,0.0388,1.0244,-1.7328,1.6947,0.5649,0,0,0
-0.0349,0.0398,1.0234,-2.3511,1.1832,-0.7176,0,0,0
-0.041,0.0349,1.0317,-2.2901,0.8855,-1.2595,0,0,0
-0.0308,0.0334,1.022,-1.7786,0.9924,-1.1908,0,0,0
-0.0444,0.0303,1.0256,-0.6336,0.0534,-0.2977,0,0,0
-0.0432,0.0405,1.0281,-0.2595,-1.5573,-0.145,0,0,0
-0.0405,0.0415,1.0347,-0.4733,-1.6107,-1.5038,0,0,0
-0.0371,0.0366,1.0327,0.1069,-0.8779,-2.313,0,0,0
-0.0334,0.0405,1.0295,0.5115,0.4351,-2.5954,0,0,0
-0.0342,0.0381,1.0229,-0.5344,2.0076,-2.1679,0,0,0
-0.0405,0.0376,1.0056,-0.6947,1.542,-1.8779,0,0,0
-0.0469,0.0376,1.0093,-2.0305,-0.2137,-2.8244,0,0,0
-0.0549,0.0332,1.0381,-3.0305,-1.084,-3.2824,0,0,0
-0.0535,0.0254,1.0361,-2.2672,-0.4885,-2.8092,0,0,0
-0.052,0.032,1.0339,-0.7557,0.1985,-1.6489,0,0,0
-0.0471,0.0344,1.0371,-0.9084,1.4046,-0.4809,0,0,0
-0.0391,0.04,1.0239,-1.3282,1.5878,-0.5496,0,0,0
-0.0513,0.0364,1.0212,-1.084,1.1145,-1.2595,0,0,0
-0.0466,0.0251,1.0227,-1.1298,-0.1985,-2.3893,0,0,0
-0.0518,0.0234,1.0288,-0.9542,-0.8779,-2.4809,0,0,0
-0.0547,0.0232,1.0308,-1.2366,-0.5267,-2.4198,0,0,0
-0.0544,0.0264,1.0359,-1.8931,0.9847,-1.7481,0,0,0
-0.0493,0.0205,1.0146,-2.145,1.8855,-0.6947,0,0,0
-0.0527,0.0286,1.0225,-2.6718,0.8244,-0.3664,0,0,0
-0.0576,0.0259,1.0225,-3.2366,-0.6718,-0.9008,0,0,0
-0.0588,0.0208,1.031,-2.8397,-0.687,-0.916,0,0,0
-0.0574,0.0188,1.0571,-1.5038,-0.2214,-0.3206,0,0,0
-0.0569,0.0173,1.0466,-0.0611,1.5496,0.6107,0,0,0
-0.0496,0.0239,1.0222,1.0153,2.1832,1.1374,0,0,0
-0.0486,0.0359,1.0085,0.0229,-0.2443,0.3359,0,0,0
-0.0503,0.0381,1.0183,-1.9542,-2.8321,-0.7481,0,0,0
-0.0466,0.0283,1.0271,-1.7252,-3.7023,-1.5344,0,0,0
-0.0498,0.0317,1.0403,-0.4351,-2.9771,-0.6794,0,0,0
-0.0457,0.0347,1.0327,0.5878,-1.6641,0.1603,0,0,0
-0.0427,0.0347,1.0239,0.3588,-0.3893,0.2672,0,0,0
-0.0361,0.0408,1.0164,-1.2366,0.4351,-0.145,0,0,0
-0.041,0.0408,1.021,-3.1985,1.0916,-0.9008,0,0,0
-0.0469,0.033,1.0215,-3.7328,1.9847,-0.7786,0,0,0
-0.0498,0.033,1.0227,-2.9313,1.7252,-0.3664,0,0,0
-0.0525,0.0344,1.0298,-2.1374,1.2214,0.0534,0,0,0
-0.0574,0.0354,1.0222,-0.542,-0.1679,0.1832,0,0,0
-0.0486,0.0352,1.0122,-0.4351,-1.7786,-0.542,0,0,0
-0.0532,0.0378,1.0078,-1.2519,-3.1527,-1.2901,0,0,0
-0.0479,0.0327,1.0222,-1.9466,-3.3817,-1.3053,0,0,0
-0.0503,0.0332,1.0413,-1.7252,-1.6641,-0.9466,0,0,0
-0.0476,0.0308,1.0364,-0.7328,-0.0305,-0.4962,0,0,0
-0.0469,0.0374,1.0283,-0.3359,0.5038,-0.4962,0,0,0
-0.0413,0.0393,1.0083,-0.8779,-0.084,-1.145,0,0,0
-0.042,0.0403,1.0125,-1.6565,-2.0763,-1.6107,0,0,0
-0.0464,0.0415,1.0259,-2.6718,-3.0534,-2.1985,0,0,0
-0.0464,0.0325,1.0386,-2.3588,-2.5725,-2.2824,0,0,0
-0.0466,0.0317,1.0403,-2.0229,-1.2901,-2.0,0,0,0
-0.0491,0.0281,1.0388,-1.4122,-0.313,-1.5649,0,0,0
-0.0479,0.0278,1.033,-0.7099,-0.5573,-1.0763,0,0,0
-0.05,0.0269,1.0247,-0.1679,-1.1908,-1.2061,0,0,0
-0.0476,0.0313,1.0283,-0.9084,-1.4733,-1.1221,0,0,0
-0.0479,0.0239,1.0366,-1.6489,-1.4275,-0.8626,0,0,0
-0.0505,0.0234,1.0486,-1.145,-0.771,-0.7557,0,0,0
-0.0518,0.0276,1.0386,-0.5496,-0.4809,-0.4427,0,0,0
-0.0522,0.0288,1.0327,-0.8015,-1.145,-0.374,0,0,0
-0.0498,0.0266,1.0244,-1.313,-1.8015,-0.5191,0,0,0
-0.051,0.0286,1.0217,-1.6565,-2.1985,-0.8168,0,0,0
-0.0513,0.0303,1.0317,-2.5649,-1.9389,-0.2672,0,0,0
-0.0493,0.0286,1.0486,-2.8779,-0.4351,-0.0153,0,0,0
-0.0508,0.0259,1.0479,-2.0763,1.855,0.2672,0,0,0
-0.0515,0.0317,1.0261,-1.229,2.0763,0.9847,0,0,0
-0.0493,0.0381,1.011,-1.5725,0.8702,1.2901,0,0,0
-0.0486,0.0354,1.0139,-2.4427,-1.4351,0.313,0,0,0
-0.0442,0.0349,1.0225,-2.1679,-2.0153,-0.7863,0,0,0
-0.043,0.0366,1.033,-1.4427,-1.1374,-0.9313,0,0,0
-0.042,0.0361,1.0322,-0.9389,-0.4198,-0.8321,0,0,0
-0.0469,0.0391,1.0168,-0.3435,-0.0992,-0.2519,0,0,0
-0.0542,0.0425,1.0139,-1.9008,-1.0076,-0.145,0,0,0
-0.0522,0.0391,1.0288,-2.5878,-1.3359,0.0305,0,0,0
-0.054,0.0337,1.0278,-2.0763,-1.1985,0.5725,0,0,0
-0.053,0.032,1.0205,-0.9466,-0.916,0.9924,0,0,0
-0.0479,0.0391,1.0024,-1.4122,-1.7786,1.2901,0,0,0
-0.0454,0.0398,1.0073,-3.1374,-2.6489,1.1985,0,0,0
-0.0396,0.0342,1.0171,-4.5115,-3.5573,0.4809,0,0,0
-0.0437,0.0295,1.0259,-5.0992,-3.0458,0.1908,0,0,0
-0.043,0.0237,1.0364,-5.5038,-1.5267,-0.0153,0,0,0
-0.0432,0.022,1.0354,-6.1298,-0.229,0.2824,0,0,0
-0.0437,0.01,1.04,-6.4733,1.0992,0.6107,0,0,0
-0.0491,0.0061,1.0422,-5.8779,1.8473,1.4351,0,0,0
-0.051,0.0002,1.0454,-4.687,1.3893,1.3664,0,0,0
-0.075,0.0061,1.05,-3.2214,0.7405,0.9618,0,0,0
-0.1025,0.0391,1.0352,-1.6718,-0.6031,-0.2748,0,0,0
-0.0974,0.043,1.0266,-1.0153,-3.6565,1.2443,0,0,0
-0.0854,0.0454,1.0437,-1.5496,-5.7328,4.5573,0,0,0
-0.0476,0.051,1.0603,-2.1145,-4.8473,6.6641,0,0,0
-0.0076,0.0518,1.0691,-1.1679,-1.5878,6.3969,0,0,0
0.0173,0.0676,1.0481,-0.1679,0.7939,3.374,0,0,0
0.0208,0.0713,1.0339,-1.6489,2.3206,-1.6641,0,0,0
0.0022,0.0601,1.031,-1.9237,2.4198,-5.8626,0,0,0
-0.022,0.0513,1.0229,-1.9237,1.6947,-8.1298,0,0,0
-0.0437,0.04,1.0415,-1.4275,0.9237,-7.3588,0,0,0
-0.0552,0.0327,1.0295,-0.0382,0.4885,-5.0763,0,0,0
-0.0486,0.0381,1.0159,0.1221,-0.0916,-3.4733,0,0,0
-0.0432,0.0359,1.0139,-0.9466,-0.2824,-2.687,0,0,0
-0.0308,0.0295,1.0034,-1.7634,-0.0382,-2.0382,0,0,0
-0.0273,0.0378,1.0105,-2.0992,0.1298,-2.2672,0,0,0
-0.0308,0.0339,1.0149,-1.6565,0.4122,-2.1832,0,0,0
-0.0295,0.0347,0.9944,-1.5267,-0.1069,-2.0992,0,0,0
-0.0295,0.033,1.0015,-2.145,-1.3511,-2.8397,0,0,0
-0.0352,0.03,1.0063,-3.229,-1.6794,-2.687,0,0,0
-0.0349,0.0259,1.0137,-4.1374,-1.0153,-2.8321,0,0,0
-0.043,0.0276,1.0149,-4.2443,0.0382,-2.374,0,0,0
-0.0481,0.032,1.0107,-4.0229,0.4275,-1.9924,0,0,0
-0.0496,0.0256,1.0117,-4.9237,-0.5649,-1.7099,0,0,0
-0.0527,0.0142,1.0166,-5.8092,-1.5267,-1.4733,0,0,0
-0.0525,-0.0007,1.0466,-5.084,-2.7405,-0.7634,0,0,0
-0.0457,-0.0027,1.0591,-2.3893,-2.4885,0.5878,0,0,0
-0.0442,-0.0042,1.0645,-0.4733,-1.6336,1.0916,0,0,0
-0.041,0.0002,1.0344,0.7786,-2.2824,0.9237,0,0,0
-0.0476,0.0208,1.0203,0.3282,-3.9771,0.4733,0,0,0
-0.0532,0.0383,1.021,-0.687,-4.4885,-0.374,0,0,0
-0.0459,0.0232,1.0322,-1.1832,-4.3282,-0.5344,0,0,0
-0.0459,0.0288,1.0503,-1.8015,-3.0076,0.0687,0,0,0
-0.0491,0.0256,1.0601,-2.4809,-0.7252,-0.1985,0,0,0
-0.0503,0.0281,1.062,-3.0229,1.374,-0.626,0,0,0
-0.0605,0.019,1.0586,-3.7099,2.8321,-0.9924,0,0,0
-0.0725,0.0203,1.0588,-3.9084,2.7557,-1.3969,0,0,0
-0.0754,0.0149,1.0669,-3.9466,2.855,-0.6107,0,0,0
-0.0735,0.0117,1.0618,-2.6794,2.687,0.6336,0,0,0
-0.0691,0.0164,1.0637,-1.6412,1.9008,2.1679,0,0,0
-0.062,0.0317,1.0483,-0.4885,1.3511,2.8244,0,0,0
-0.0437,0.0366,1.0361,0.3206,0.4351,2.6947,0,0,0
-0.0271,0.0337,1.0232,1.3359,-0.0763,1.8321,0,0,0
-0.0203,0.0391,1.0005,1.626,-0.6412,0.3588,0,0,0
-0.0186,0.0415,1.0051,-0.0763,-0.7557,-1.0229,0,0,0
-0.0247,0.0339,1.0027,-1.916,0.1756,-1.5267,0,0,0
-0.0281,0.0247,1.0164,-2.8931,1.6107,-1.3206,0,0,0
-0.0388,0.0266,1.0193,-3.3511,2.7481,-0.5267,0,0,0
-0.0371,0.0244,1.0105,-3.4046,3.3969,-0.0763,0,0,0
-0.0452,0.0242,1.0112,-2.8855,2.4275,-0.0153,0,0,0
-0.0508,0.0315,1.0112,-2.1527,1.0992,-0.0763,0,0,0
-0.0518,0.0276,1.0134,-1.6565,-0.3282,-0.3969,0,0,0
-0.0591,0.0305,1.0186,-0.8779,-2.4885,-0.5038,0,0,0
-0.0525,0.0288,1.0244,-0.8321,-3.5573,-0.4885,0,0,0
-0.0469,0.031,1.0291,-0.5649,-3.7023,-0.6718,0,0,0
-0.0405,0.0298,1.0312,-0.6947,-2.5649,-0.8779,0,0,0
-0.0476,0.0244,1.0413,-0.9237,-1.0534,-0.6412,0,0,0
-0.0481,0.0269,1.033,-0.7786,0.4656,-0.3817,0,0,0
-0.0432,0.0266,1.0137,-0.3969,0.7405,0.0611,0,0,0
-0.0439,0.0364,1.0115,-1.0382,-0.1603,-0.0382,0,0,0
-0.0439,0.0413,1.0164,-2.1374,-1.5878,-0.4122,0,0,0
-0.0496,0.0586,1.0242,-3.1832,-2.8779,-1.4122,0,0,0
-0.0469,0.0417,1.0364,-2.313,-3.4046,-1.2824,0,0,0
-0.0432,0.0439,1.0396,-1.687,-2.4809,-1.2443,0,0,0
-0.0461,0.0442,1.0278,-1.3435,-1.8244,-1.2061,0,0,0
-0.0427,0.043,1.0339,-2.5344,-1.9084,-1.458,0,0,0
-0.0427,0.032,1.041,-3.3359,-1.7252,-0.7557,0,0,0
-0.0308,0.031,1.0571,-3.7786,-0.458,-0.5954,0,0,0
-0.0249,0.0244,1.061,-3.1832,1.2366,-0.7023,0,0,0
-0.0186,0.019,1.0493,-2.3817,2.9389,-1.1603,0,0,0
-0.0188,0.0234,1.0466,-1.8092,2.9389,-2.0382,0,0,0
-0.0164,0.0154,1.0391,-1.9924,2.1145,-3.6641,0,0,0
-0.0332,-0.0254,1.0466,-1.2137,1.0,-4.2214,0,0,0
-0.0515,-0.0005,1.0344,-0.7557,-0.0153,-4.8015,0,0,0
-0.0637,-0.0142,1.0332,-0.5802,-0.3817,-4.4351,0,0,0
-0.0723,-0.0017,1.0354,-0.7023,-0.2977,-3.5038,0,0,0
-0.084,0.001,1.04,-0.6412,0.5038,-1.9466,0,0,0
-0.0837,-0.0032,1.0315,-0.4733,1.5115,0.4656,0,0,0
-0.0825,0.0132,1.0295,-0.0687,1.5038,2.6947,0,0,0
-0.0737,0.0208,1.0156,0.0305,1.0153,3.8015,0,0,0
-0.0671,0.0273,1.0142,-0.2519,-0.2443,4.2977,0,0,0
-0.0554,0.0391,1.0129,0.0153,-1.7634,3.7023,0,0,0
-0.0486,0.0442,1.0125,-0.3359,-2.8168,3.3511,0,0,0
-0.0396,0.0498,1.0181,-0.8015,-3.2137,3.2366,0,0,0
-0.0298,0.0522,1.0254,-1.7481,-1.9466,2.855,0,0,0
-0.0271,0.0493,1.033,-2.1603,-0.2901,2.3588,0,0,0
-0.0281,0.0474,1.0303,-2.4962,0.7099,1.4733,0,0,0
-0.0273,0.0515,1.0354,-3.0229,2.0076,0.771,0,0,0
-0.0308,0.0432,1.0437,-3.374,2.5191,0.0611,0,0,0
-0.0359,0.0383,1.0503,-2.9084,2.9237,0.0153,0,0,0
-0.0415,0.0352,1.0454,-1.6183,3.1603,-0.3206,0,0,0
-0.0469,0.0366,1.0435,-1.1756,2.6336,-0.2901,0,0,0
-0.0425,0.0359,1.0447,-1.0382,1.8931,-0.9008,0,0,0
-0.0378,0.0337,1.0386,0.2137,1.6412,-0.855,0,0,0
-0.0342,0.0378,1.02,1.5115,1.2672,-0.7939,0,0,0
-0.0359,0.0374,1.0159,0.9313,0.8244,-1.5344,0,0,0
-0.0359,0.0408,1.0193,-0.3969,1.2137,-1.916,0,0,0
-0.0354,0.041,1.0212,-1.0458,2.458,-3.0992,0,0,0
-0.0447,0.0425,1.0215,-1.084,3.3282,-3.6183,0,0,0
-0.0542,0.0374,1.0161,-0.6794,3.7099,-3.7481,0,0,0
-0.0635,0.0386,1.0022,0.4046,2.2901,-3.916,0,0,0
-0.0667,0.0425,1.0049,0.1527,0.4351,-3.7557,0,0,0
-0.0676,0.0334,0.9993,0.3588,-1.2595,-3.1145,0,0,0
-0.0586,0.0391,1.0059,0.2519,-2.0229,-2.7176,0,0,0
-0.0603,0.0405,1.0112,0.2672,-1.7863,-2.6107,0,0,0
-0.0486,0.0449,1.0117,-0.4122,-1.3969,-2.7634,0,0,0
-0.0491,0.0427,1.0154,-0.5496,-0.6718,-2.4351,0,0,0
-0.0537,0.0444,1.0244,-0.9771,-0.8244,-2.7328,0,0,0
-0.0535,0.0342,1.022,-1.1374,-0.8855,-2.9237,0,0,0
-0.0591,0.0342,1.0293,-1.7634,-0.8321,-3.0992,0,0,0
-0.063,0.0208,1.0405,-2.7481,-1.1069,-3.1527,0,0,0
-0.0581,0.0203,1.0447,-2.7023,-0.8626,-2.9008,0,0,0
-0.0632,0.0117,1.0496,-1.8015,-0.1908,-2.4122,0,0,0
-0.0618,0.0125,1.0508,-0.9008,-0.1221,-2.4885,0,0,0
-0.061,0.0161,1.0566,-1.0534,-0.0458,-1.7786,0,0,0
-0.0591,0.0137,1.05,-0.855,0.3893,-1.9618,0,0,0
-0.062,0.0105,1.0547,-0.5649,1.0916,-1.3435,0,0,0
-0.064,0.0105,1.0474,-0.4046,1.2977,-0.4809,0,0,0
-0.0623,0.0164,1.0474,-0.1527,0.9313,-0.1756,0,0,0
-0.0654,0.0305,1.0405,0.0763,0.5267,-0.1908,0,0,0
-0.0613,0.0293,1.0347,0.7557,0.1069,0.1756,0,0,0
-0.0593,0.0371,1.0271,0.7939,-0.3969,0.3359,0,0,0
-0.0559,0.033,1.0232,0.0305,0.0611,0.0916,0,0,0
-0.0549,0.0403,1.0247,-0.6031,0.8931,-0.0305,0,0,0
-0.053,0.0464,1.0205,-1.229,1.8931,-0.2824,0,0,0
-0.053,0.0183,1.0269,-1.7405,1.8244,0.0763,0,0,0
-0.0588,0.0483,1.0149,-2.0534,1.2595,0.6336,0,0,0
-0.0552,0.0361,1.0203,-1.855,0.7634,0.229,0,0,0
-0.0552,0.0378,1.0251,-0.9389,0.2672,0.5573,0,0,0
-0.0449,0.0442,1.0227,-1.2214,0.0763,0.8931,0,0,0
-0.0435,0.0447,1.0229,-0.7176,0.0687,0.6718,0,0,0
-0.0454,0.0466,1.0144,-0.3206,-0.6718,0.5649,0,0,0
-0.0483,0.0544,1.0122,-0.2595,-0.7939,-0.4885,0,0,0
-0.0483,0.0581,1.0139,-1.0382,-1.626,-1.5725,0,0,0
-0.0569,0.0488,1.0132,-0.9618,-1.9466,-1.8473,0,0,0
-0.0552,0.0444,1.019,-1.4504,-1.9466,-1.8473,0,0,0
-0.0554,0.0437,1.0229,-2.1221,-0.8321,-0.855,0,0,0
-0.0542,0.0388,1.0237,-2.8855,0.0076,-0.916,0,0,0
-0.053,0.0315,1.0271,-3.2748,0.9924,-0.4122,0,0,0
-0.0593,0.0266,1.0251,-3.626,1.1603,-0.2901,0,0,0
-0.0596,0.0291,1.0305,-3.5496,0.6565,-0.374,0,0,0
-0.061,0.0256,1.0391,-2.8931,-0.0305,-0.6107,0,0,0
-0.0681,0.0295,1.0378,-1.7634,-0.6947,-0.3588,0,0,0
-0.0657,0.0264,1.0386,-0.1069,-1.0,0.1756,0,0,0
-0.0652,0.0286,1.032,1.0076,-1.4046,0.3817,0,0,0
-0.0603,0.0315,1.0193,1.0916,-1.3664,-0.0153,0,0,0
-0.0615,0.0352,1.0198,-0.5038,-2.0611,-0.2595,0,0,0
-0.0591,0.0378,1.0161,-2.6565,-2.4656,-0.5115,0,0,0
-0.0623,0.0344,1.0264,-3.9542,-1.9389,-0.5115,0,0,0
