ax,ay,az,gx,gy,gz,left_click,right_click
-0.2148,0.0632,1.0066,1.4809,-2.5954,-1.3664,0,0,0
-0.2097,0.0608,0.9978,0.3588,-2.2137,-1.4275,0,0,0
-0.2144,0.061,0.9978,-1.3817,-2.7328,-0.8702,0,0,0
-0.2109,0.0625,0.9985,-2.0916,-2.5496,-0.2901,0,0,0
-0.2095,0.0667,0.9963,-2.374,-2.2824,0.0534,0,0,0
-0.2036,0.0662,0.9985,-1.9771,-1.3969,0.0992,0,0,0
-0.2024,0.0627,1.0017,-1.6947,-0.7634,-0.4275,0,0,0
-0.207,0.0645,0.9946,-2.5344,-0.0534,-1.0153,0,0,0
-0.2141,0.0596,0.9944,-2.4885,-1.0458,-0.7863,0,0,0
-0.22,0.0537,0.9968,-2.2366,-2.4962,0.6641,0,0,0
-0.2314,0.0508,1.0007,-1.9542,-4.2672,1.6031,0,0,0
-0.2292,0.0505,0.9927,-1.6489,-6.7405,2.916,0,0,0
-0.2202,0.043,0.998,-1.1221,-9.0382,4.458,0,0,0
-0.2227,0.0208,0.9978,-1.6565,-11.2443,6.5878,0,0,0
-0.2554,-0.0068,0.989,-4.6947,-14.2595,10.916,0,0,0
-0.2844,-0.0234,0.9836,-6.229,-19.8092,18.6718,0,0,0
-0.2847,-0.0491,0.9683,-6.6718,-26.9695,30.0305,0,0,0
-0.2537,-0.053,0.9646,-5.5725,-35.3664,42.0153,0,0,0
-0.2175,-0.033,1.0007,-5.2443,-40.7328,51.626,0,0,0
-0.2039,-0.0295,0.9949,-4.8779,-43.1756,56.9008,0,0,0
-0.2527,-0.0195,0.9661,-7.8702,-46.8015,61.1908,0,0,0
-0.2463,-0.012,0.9607,-10.4809,-50.3969,66.8702,0,0,0
-0.1965,-0.0339,1.0076,-16.9847,-48.1679,78.4657,0,0,0
-0.1499,-0.0173,1.0339,-25.7252,-43.3664,91.2366,0,0,0
-0.1038,0.0137,1.095,-34.0992,-34.3817,99.9771,0,0,0
-0.0603,0.0459,1.1477,-37.9466,-20.5725,102.8626,0,0,0
-0.0261,0.0774,1.1833,-41.9389,-3.6641,100.1603,0,0,0
-0.0107,0.0742,1.1958,-44.7328,13.0382,95.2214,0,0,0
0.012,0.0229,1.1877,-46.6794,26.2137,90.1756,0,0,0
-0.002,0.0698,1.1548,-45.0687,34.6183,84.4198,0,0,0
-0.0149,0.0969,1.1306,-39.5954,40.0611,74.8321,0,0,0
-0.022,0.1152,1.0723,-32.4656,39.1679,64.1756,0,0,0
-0.0254,0.1318,1.0542,-25.4351,34.1145,51.0229,0,0,0
-0.0454,0.1462,1.0229,-16.8855,27.5038,36.4046,0,0,0
-0.0698,0.1316,0.9922,-7.9771,18.0382,22.2901,0,0,0
-0.0957,0.1167,0.9768,-0.5496,7.7328,12.8855,0,0,0
-0.1199,0.0906,0.9646,5.7176,-2.4198,7.1908,0,0,0
-0.1372,0.0884,0.9514,9.2061,-10.3053,3.1985,0,0,0
-0.1414,0.0872,0.9402,9.8779,-13.7099,-0.542,0,0,0
-0.1445,0.074,0.9607,7.687,-15.2824,-2.626,0,0,0
-0.1604,0.0686,0.9854,4.2824,-11.1603,-3.229,0,0,0
-0.167,0.0439,0.9846,0.4275,-4.7099,-2.8321,0,0,0
-0.1804,0.0491,0.9705,-2.1298,0.3893,-1.084,0,0,0
-0.1926,0.0471,0.9617,-2.6947,5.0687,0.2824,0,0,0
-0.1804,0.052,0.9719,-3.6336,9.9847,0.3435,0,0,0
-0.1843,0.0549,0.9443,-3.0382,10.8092,-1.2901,0,0,0
-0.1848,0.0508,0.9434,-3.5573,9.8473,-4.8397,0,0,0
-0.1865,0.0447,0.9453,-4.1679,7.0305,-8.1832,0,0,0
-0.2041,0.0466,0.937,-3.9466,2.9695,-11.855,0,0,0
-0.2073,0.0361,0.9358,-1.1374,-1.1679,-15.1374,0,0,0
-0.2229,0.0427,0.9214,1.7634,-4.7634,-17.5878,0,0,0
-0.2244,0.0303,0.9233,2.2672,-9.8779,-18.1985,0,0,0
-0.2302,0.0205,0.9514,0.8397,-14.9695,-16.7023,0,0,0
-0.2187,0.0222,0.9678,-0.9847,-19.2443,-14.9618,0,0,0
-0.2078,0.031,0.9736,0.1679,-24.4351,-14.3359,0,0,0
-0.1936,0.032,0.9939,2.9924,-29.8702,-14.7099,0,0,0
-0.1799,0.0359,1.0244,4.1908,-33.5649,-15.4275,0,0,0
-0.1609,0.0376,1.0667,4.5649,-32.771,-15.6794,0,0,0
-0.1448,0.0352,1.075,4.5725,-30.6565,-15.2443,0,0,0
-0.1365,0.0396,1.0779,4.7099,-27.5114,-14.7786,0,0,0
-0.1375,0.053,1.0596,5.8168,-25.6641,-14.9847,0,0,0
-0.1323,0.043,1.0393,6.3053,-26.2366,-14.8321,0,0,0
-0.1318,0.0461,1.0278,5.4733,-28.1985,-13.9924,0,0,0
-0.1252,0.0408,1.03,3.9008,-29.9313,-13.8015,0,0,0
-0.1182,0.0339,1.0403,2.542,-30.4122,-13.5802,0,0,0
-0.113,0.0313,1.0332,1.5573,-30.2901,-13.6183,0,0,0
-0.0999,0.041,1.0249,0.5954,-30.1679,-14.0687,0,0,0
-0.0962,0.0339,1.0283,-1.4427,-28.8931,-14.1679,0,0,0
-0.093,0.0239,1.0491,-5.542,-26.8321,-13.7328,0,0,0
-0.0874,0.0115,1.0442,-8.2901,-23.145,-12.2901,0,0,0
-0.0874,0.009,1.0322,-10.5878,-20.7557,-10.1221,0,0,0
-0.0876,0.0073,1.0247,-13.7099,-20.1985,-7.7939,0,0,0
-0.0779,0.0063,1.0242,-17.5725,-19.7786,-6.2366,0,0,0
-0.0715,-0.0017,1.0286,-20.9542,-20.3969,-4.5191,0,0,0
-0.0645,-0.0012,1.0396,-22.7099,-20.7405,-2.458,0,0,0
-0.0422,-0.0059,1.0793,-23.1985,-19.0153,-1.0076,0,0,0
-0.0266,-0.0039,1.1072,-21.6641,-14.626,-0.9084,0,0,0
-0.0166,-0.0027,1.1057,-19.0687,-9.626,-1.9237,0,0,0
-0.0154,-0.0029,1.0886,-16.0382,-6.1298,-3.9237,0,0,0
-0.0173,-0.0098,1.0789,-12.084,-4.4427,-5.9313,0,0,0
-0.0396,-0.0166,1.0518,-8.6947,-5.2901,-6.8779,0,0,0
-0.0479,-0.0229,1.0374,-6.0611,-8.0382,-6.3664,0,0,0
-0.0527,-0.0205,1.0369,-4.6565,-10.7634,-5.0611,0,0,0
-0.041,-0.0203,1.051,-2.6489,-12.1221,-3.7557,0,0,0
-0.0293,-0.0164,1.0466,-1.6031,-12.6641,-2.2672,0,0,0
-0.0068,-0.0161,1.0378,-1.3817,-12.5573,-1.5954,0,0,0
-0.011,-0.0142,1.0469,-2.1832,-12.9389,-0.8168,0,0,0
0.0,-0.002,1.0608,-3.6794,-11.9847,0.0229,0,0,0
0.0024,-0.0156,1.0496,-3.0687,-11.4656,1.8015,0,0,0
0.0125,-0.0039,1.03,-3.313,-12.2214,3.0534,0,0,0
0.02,0.0063,1.0371,-4.6183,-12.1756,3.3817,0,0,0
0.0352,0.0005,1.061,-5.5038,-10.2137,3.3053,0,0,0
0.0452,0.0015,1.0889,-7.7863,-5.1908,3.6412,0,0,0
0.0422,-0.0015,1.0952,-7.145,1.2748,4.0611,0,0,0
0.053,0.0044,1.0701,-7.8779,3.5115,3.9237,0,0,0
0.0588,0.0127,1.0608,-7.3969,4.0,1.2061,0,0,0
0.0576,0.0085,1.0146,-5.1527,1.2595,-2.771,0,0,0
0.0562,0.0,0.9905,-4.5267,-2.0916,-8.6641,0,0,0
0.0442,-0.0176,1.011,-7.1221,-4.2672,-12.2443,0,0,0
0.0195,-0.0388,1.0142,-7.7557,-3.4885,-13.5725,0,0,0
-0.0039,-0.0393,1.0256,-8.8015,-1.5725,-11.5496,0,0,0
-0.0176,-0.0686,1.0061,-11.6718,0.8397,-9.8779,0,0,0
-0.0217,-0.0903,1.0181,-12.0611,4.1298,-4.8702,0,0,0
-0.0286,-0.0845,1.0491,-12.3435,8.9008,1.8626,0,0,0
-0.0388,-0.092,1.0452,-12.4198,14.4198,6.9466,0,0,0
-0.0339,-0.0874,0.9944,-9.3664,16.4275,11.1603,0,0,0
-0.0159,-0.0813,0.9175,-8.6183,13.6107,12.3511,0,0,0
-0.0156,-0.0432,0.9241,-13.0611,8.4046,11.9771,0,0,0
-0.0205,-0.0557,0.9456,-17.7252,4.0229,11.7023,0,0,0
-0.0176,-0.0625,1.0193,-19.2595,2.229,11.3282,0,0,0
-0.0261,-0.0735,1.021,-17.4885,4.2443,12.7786,0,0,0
-0.054,-0.0811,0.9932,-15.1374,5.4962,13.8626,0,0,0
-0.0852,-0.0791,0.9915,-14.4427,6.0305,16.2061,0,0,0
-0.1038,-0.0754,0.9995,-17.2061,8.6183,20.0763,0,0,0
-0.105,-0.1072,0.9822,-21.8397,11.2214,26.9008,0,0,0
-0.1487,-0.1294,0.9868,-27.2061,13.4733,35.4809,0,0,0
-0.1609,-0.123,0.9895,-24.9924,14.0687,46.5649,0,0,0
-0.1475,-0.1125,1.0005,-22.7557,12.5267,57.3282,0,0,0
-0.1033,-0.0842,1.0193,-21.0076,11.9542,64.0382,0,0,0
-0.0566,-0.0669,1.0391,-18.0916,12.8626,66.7481,0,0,0
-0.0144,-0.0422,1.0154,-14.3053,11.9695,64.9695,0,0,0
0.0144,-0.0098,0.9814,-10.2595,8.0763,58.3817,0,0,0
0.0076,-0.0071,0.9565,-7.5344,2.2595,48.9771,0,0,0
0.0039,0.0205,0.9351,-6.2977,-5.8473,37.8092,0,0,0
-0.002,0.0139,0.9595,-7.8168,-11.0534,27.9313,0,0,0
-0.0291,-0.0161,0.9915,-8.9542,-14.5802,21.8397,0,0,0
-0.0535,-0.03,1.0244,-10.6489,-15.0153,20.6183,0,0,0
-0.0747,-0.0562,1.0366,-11.0534,-13.7176,22.458,0,0,0
-0.0767,-0.0623,1.0159,-10.8931,-12.2672,25.4733,0,0,0
-0.0916,-0.0728,1.0173,-11.5802,-11.8168,28.374,0,0,0
-0.0947,-0.0918,1.0413,-11.9542,-10.9008,31.3359,0,0,0
-0.0911,-0.0923,1.064,-8.4275,-10.4046,34.0534,0,0,0
-0.0862,-0.0745,1.0735,-9.7328,-5.6947,33.855,0,0,0
-0.0959,-0.1016,1.0339,-11.0076,-7.7939,35.5115,0,0,0
-0.1016,-0.1104,1.0623,-12.2443,-8.8321,37.6183,0,0,0
-0.0813,-0.1011,1.0869,-9.9008,-7.8779,40.2137,0,0,0
-0.0496,-0.0781,1.1028,-7.8855,-6.229,40.0458,0,0,0
-0.031,-0.0525,1.0913,-4.5802,-4.6183,36.5725,0,0,0
-0.0173,-0.0313,1.0996,-1.7634,-4.0305,31.2214,0,0,0
-0.0093,-0.0369,1.0786,0.0,-4.2443,25.1603,0,0,0
0.0,-0.0249,1.0566,3.8473,-6.5496,16.9084,0,0,0
0.0129,-0.0198,1.0459,5.687,-8.5344,9.0458,0,0,0
0.0044,-0.0281,1.0581,7.4351,-9.229,2.1679,0,0,0
-0.0095,-0.0344,1.0835,6.9924,-6.0687,-2.4427,0,0,0
-0.033,-0.0381,1.0605,6.1679,-1.3359,-5.8702,0,0,0
-0.0366,-0.0537,1.0259,5.3817,1.4046,-5.8092,0,0,0
-0.0537,-0.0552,1.0,3.3282,2.4962,-5.7481,0,0,0
-0.0613,-0.0623,0.9875,0.6183,2.6947,-5.542,0,0,0
-0.0588,-0.0559,0.9805,-0.8244,1.855,-5.0,0,0,0
-0.053,-0.061,0.9917,-2.3511,0.4427,-4.6183,0,0,0
-0.0522,-0.0549,1.0002,-3.7557,-2.2672,-4.9313,0,0,0
-0.0559,-0.0625,1.0161,-4.8092,-4.1069,-6.145,0,0,0
-0.0579,-0.0681,1.0149,-2.7405,-5.7405,-7.0382,0,0,0
-0.0322,-0.0603,0.9885,2.8168,-9.855,-9.855,0,0,0
-0.0374,-0.0491,1.0259,1.5267,-12.084,-12.7023,0,0,0
-0.042,-0.0542,1.0503,1.5802,-13.7557,-14.3359,0,0,0
-0.031,-0.0725,1.0452,2.3282,-11.7939,-15.1985,0,0,0
-0.0212,-0.0596,1.0266,3.8092,-11.9695,-16.4427,0,0,0
-0.0063,-0.043,0.9946,1.9771,-14.1603,-18.687,0,0,0
0.0056,-0.0352,1.0029,3.2519,-18.9771,-23.3206,0,0,0
0.0171,-0.03,1.0408,4.5725,-22.5725,-29.0305,0,0,0
-0.0085,-0.0525,1.0723,2.7786,-21.8168,-32.374,0,0,0
-0.0229,-0.0642,1.0354,7.9237,-20.374,-33.3817,0,0,0
-0.0383,-0.0706,1.0723,2.6489,-17.0,-30.542,0,0,0
-0.0474,-0.1018,1.0161,0.0611,-14.0916,-25.9542,0,0,0
-0.0503,-0.0796,1.0007,-4.9618,-13.7023,-19.6336,0,0,0
-0.0288,-0.0706,1.0042,-9.5496,-14.7099,-15.3588,0,0,0
-0.0168,-0.0774,0.9954,-11.2061,-17.1298,-11.9389,0,0,0
-0.0166,-0.0776,1.011,-12.1298,-20.8626,-11.6641,0,0,0
-0.0225,-0.0781,1.0315,-13.0687,-22.9847,-12.1069,0,0,0
-0.0349,-0.0938,1.0591,-12.0458,-23.9542,-11.9084,0,0,0
-0.0256,-0.104,1.0488,-8.2595,-22.7099,-10.3588,0,0,0
-0.0183,-0.1064,1.0378,-6.3206,-21.0611,-8.2901,0,0,0
0.0098,-0.094,1.0095,-7.0076,-20.4656,-6.1069,0,0,0
0.0244,-0.0928,1.0095,-7.8779,-20.9313,-3.9847,0,0,0
0.0452,-0.0779,0.9912,-6.6947,-25.4275,-3.7405,0,0,0
0.0393,-0.0769,1.009,-6.084,-31.2366,-4.5267,0,0,0
0.0454,-0.0811,1.0552,-5.1298,-34.626,-5.145,0,0,0
0.0452,-0.0901,1.0813,-2.2061,-32.3359,-4.458,0,0,0
0.0649,-0.0913,1.0615,0.3282,-27.6489,-2.916,0,0,0
0.0815,-0.0862,1.0244,-0.9237,-21.1603,-1.8779,0,0,0
0.0952,-0.0771,1.0022,-6.0458,-17.771,-1.7786,0,0,0
0.0872,-0.0803,1.0159,-8.9924,-17.3282,-0.313,0,0,0
0.0798,-0.0969,1.0393,-8.9084,-20.4046,0.687,0,0,0
0.0645,-0.0862,1.0627,-4.8702,-24.9008,2.3359,0,0,0
0.073,-0.092,1.0684,-1.0382,-27.4198,2.6489,0,0,0
0.084,-0.1028,1.0725,-1.1679,-24.8626,4.9389,0,0,0
0.0881,-0.1021,1.0615,2.5573,-19.6031,7.5573,0,0,0
0.1206,-0.0989,1.0173,3.4427,-12.9389,9.3206,0,0,0
0.1321,-0.0864,1.0205,1.0076,-7.9008,10.3359,0,0,0
0.1428,-0.0769,0.9707,-6.1832,-8.3588,9.5573,0,0,0
0.1121,-0.0854,0.9819,-17.7252,-6.6107,9.3359,0,0,0
0.0703,-0.1282,1.0403,-10.4656,-8.2824,11.6718,0,0,0
0.0752,-0.1179,1.0601,-5.1145,-8.0458,14.7863,0,0,0
0.073,-0.136,1.0537,0.8244,-6.6183,18.2137,0,0,0
0.0999,-0.1108,1.0061,2.5878,-7.3817,20.7099,0,0,0
0.1367,-0.0872,0.9626,2.0534,-9.3053,19.1679,0,0,0
0.1487,-0.071,0.9849,0.3893,-11.4198,16.0382,0,0,0
0.1565,-0.0691,1.0005,-1.084,-10.3435,11.2366,0,0,0
0.155,-0.0693,1.0249,-2.8779,-6.5802,7.2366,0,0,0
0.1299,-0.0898,1.0239,-4.3053,-2.9084,5.0916,0,0,0
0.1067,-0.0842,1.0171,-3.0687,-1.6183,5.3053,0,0,0
0.1057,-0.1055,1.0227,-2.145,-1.1527,7.1603,0,0,0
0.1079,-0.0974,1.0273,-0.4962,0.4656,9.0305,0,0,0
0.1169,-0.1008,1.0037,-2.0458,2.7252,9.9313,0,0,0
0.0952,-0.1213,1.0071,-7.0687,3.6412,11.4962,0,0,0
0.0676,-0.1331,1.0098,-12.0992,5.1908,14.8321,0,0,0
0.0718,-0.1433,1.0103,-14.7863,4.5878,20.6794,0,0,0
0.0583,-0.1492,1.0122,-13.4198,0.2672,27.084,0,0,0
0.0847,-0.1206,1.0095,-11.6107,-2.9466,30.4198,0,0,0
0.1038,-0.1182,1.0315,-11.0076,-4.8397,32.0611,0,0,0
0.1318,-0.0945,1.051,-10.2366,-4.5115,32.0,0,0,0
0.1501,-0.0876,1.0554,-8.1374,-1.7252,30.458,0,0,0
0.1433,-0.0979,1.0522,-7.4656,1.8168,27.6565,0,0,0
0.1423,-0.0925,1.0066,-7.1069,3.6718,25.2061,0,0,0
0.1431,-0.0884,1.0081,-8.9313,2.8168,23.3359,0,0,0
0.145,-0.0906,1.0342,-6.0229,1.7557,21.1679,0,0,0
0.1526,-0.0647,1.0281,-4.3359,1.7328,17.0305,0,0,0
0.1602,-0.0684,1.0188,-1.9542,1.0916,10.7634,0,0,0
0.1567,-0.0566,1.0325,-1.855,1.0458,3.5878,0,0,0
0.1333,-0.0818,1.03,0.2061,1.0305,-1.6336,0,0,0
0.1147,-0.0913,1.0283,1.7176,1.3359,-4.626,0,0,0
0.0928,-0.1055,1.0271,1.458,2.7939,-5.4809,0,0,0
0.0803,-0.1157,1.0029,0.916,4.3435,-4.6107,0,0,0
0.075,-0.1194,0.9932,-0.5573,4.3206,-3.7863,0,0,0
0.0649,-0.1157,0.9963,-1.6183,3.0153,-2.5878,0,0,0
0.0759,-0.1096,1.0015,-1.2519,1.1527,-1.916,0,0,0
0.075,-0.1135,1.0081,-2.7557,-0.4427,-1.6412,0,0,0
0.0708,-0.1174,1.0115,-1.8092,-0.7481,-0.9466,0,0,0
0.0867,-0.1226,1.0066,-0.542,-1.1832,-0.374,0,0,0
0.0869,-0.1116,1.0293,-3.0153,0.6565,0.1908,0,0,0
0.0972,-0.1121,1.0383,-3.8779,2.7863,0.9847,0,0,0
0.0962,-0.1191,1.0166,-2.0076,2.3588,1.3817,0,0,0
0.0825,-0.1123,1.0129,-3.6412,0.7481,1.9466,0,0,0
0.0791,-0.1133,1.0027,-2.4962,-1.7863,1.916,0,0,0
0.0964,-0.1206,1.0742,2.1756,-0.8015,1.4809,0,0,0
0.115,-0.1069,1.0242,3.1221,-2.229,1.0687,0,0,0
0.1184,-0.0903,1.0164,1.2443,-3.0,-1.3893,0,0,0
0.1123,-0.1035,1.041,-0.3511,-2.0458,-3.7099,0,0,0
0.1045,-0.1128,1.0408,-0.1985,-0.1374,-4.0687,0,0,0
0.1003,-0.1096,1.0132,-1.4885,1.0916,-2.7786,0,0,0
0.0959,-0.114,1.0071,-1.2443,0.0305,-1.8244,0,0,0
0.0974,-0.1135,1.0215,-1.3817,-0.1985,-1.2901,0,0,0
0.0945,-0.1184,1.0234,-0.8397,0.1679,-0.7481,0,0,0
0.1025,-0.1172,1.0234,-1.1679,0.2977,-0.2214,0,0,0
0.1021,-0.1143,1.0198,-1.771,-0.0305,0.1374,0,0,0
0.1011,-0.1145,1.0154,-1.1679,-0.8015,0.4046,0,0,0
0.103,-0.116,1.0266,-0.9618,-1.1908,-0.1756,0,0,0
0.1082,-0.1084,1.0286,-1.5038,0.0229,-1.084,0,0,0
0.1077,-0.1133,1.0142,-0.9847,0.2901,-1.8702,0,0,0
0.0984,-0.1096,1.0142,-0.8855,-0.5649,-2.7939,0,0,0
0.0898,-0.1155,1.0159,-1.229,-0.687,-2.6947,0,0,0
0.0847,-0.1272,1.011,0.2061,-0.3206,-2.4427,0,0,0
0.0837,-0.1204,1.0146,0.1832,0.5878,-2.0534,0,0,0
0.0889,-0.1191,1.0115,-0.1679,1.1298,-1.1908,0,0,0
0.092,-0.1138,1.009,0.374,1.084,-0.5115,0,0,0
0.0857,-0.1135,1.0173,-1.8855,-0.0534,2.1985,0,0,0
0.0867,-0.1226,1.0247,0.2061,0.2595,1.7023,0,0,0
0.1021,-0.1099,1.0239,0.229,-0.4656,0.9466,0,0,0
0.1094,-0.1125,1.0276,0.5038,-0.458,-0.229,0,0,0
0.0996,-0.1106,1.0183,-0.3817,-0.8626,-1.1832,0,0,0
0.0942,-0.1113,1.0349,0.4656,-0.7099,-1.3435,0,0,0
0.0994,-0.1133,1.02,0.145,0.6183,-0.7634,0,0,0
0.0913,-0.1086,1.012,-0.8931,0.7405,-0.3359,0,0,0
0.0874,-0.1084,1.0166,-0.8702,0.9313,-0.3206,0,0,0
0.0918,-0.1079,1.0303,-2.145,1.6794,0.1145,0,0,0
0.0891,-0.1074,1.0212,-1.6336,2.313,1.0611,0,0,0
0.0918,-0.1057,1.0251,-0.1145,2.7405,0.9389,0,0,0
0.0957,-0.0947,1.02,-0.2595,2.7328,-0.3588,0,0,0
0.0967,-0.0991,1.0186,-0.1679,1.6107,-1.4809,0,0,0
0.083,-0.1042,1.0166,-1.4122,-0.1145,-1.6947,0,0,0
0.0796,-0.1096,1.0117,-0.3893,-1.7939,-0.8092,0,0,0
0.0806,-0.1121,1.0308,2.1145,-2.2595,-0.4733,0,0,0
0.0872,-0.1013,1.0261,2.2366,-1.4198,-0.0076,0,0,0
0.0928,-0.1062,1.0027,0.1069,-1.2137,0.5344,0,0,0
0.0874,-0.092,1.0122,-2.7328,-1.5954,0.4427,0,0,0
0.0906,-0.0955,1.0366,-2.3282,-0.9313,0.3282,0,0,0
0.0947,-0.0972,1.042,-1.5038,-0.9389,0.5496,0,0,0
0.0986,-0.0945,1.0327,-1.0076,-0.6489,0.9695,0,0,0
0.0984,-0.0942,1.0161,-1.229,-1.2748,0.9771,0,0,0
0.1011,-0.0898,1.0171,-1.687,-2.1679,0.1985,0,0,0
0.0964,-0.0962,1.0413,-0.5573,-1.4351,-0.2595,0,0,0
0.1018,-0.0964,1.0308,-0.374,-1.1679,-0.0534,0,0,0
0.1121,-0.0986,1.02,-1.0763,-0.3282,-0.3359,0,0,0
0.0999,-0.1001,1.0198,-2.145,-0.313,-0.7939,0,0,0
0.0981,-0.0967,1.011,-1.3588,-0.1527,-1.5725,0,0,0
0.0959,-0.1045,1.0095,-1.6718,0.1603,-1.8244,0,0,0
0.0872,-0.1089,1.022,-1.6947,1.084,-1.1527,0,0,0
0.0864,-0.1094,1.0129,-2.6031,1.4198,-0.4656,0,0,0
0.083,-0.1099,1.031,-2.4809,1.1221,0.0458,0,0,0
0.0903,-0.1128,1.0254,-2.0305,0.313,0.0992,0,0,0
0.0906,-0.1064,1.0193,-1.7481,-1.6565,0.7405,0,0,0
0.0911,-0.1001,1.0271,-0.4122,-2.458,0.0916,0,0,0
0.1064,-0.1018,1.0261,-0.1527,-2.313,-0.5267,0,0,0
0.1077,-0.0984,1.0222,-1.1985,-1.0992,-1.7481,0,0,0
0.1016,-0.1011,1.0159,-1.0,0.2519,-2.7099,0,0,0
0.0918,-0.1094,1.021,-1.4504,1.4351,-2.7557,0,0,0
0.0815,-0.1111,1.0134,-1.8321,2.3969,-2.6489,0,0,0
0.0823,-0.1108,1.0146,-2.5725,2.145,-1.3511,0,0,0
0.0762,-0.1042,1.0217,-3.3817,0.6718,-0.1527,0,0,0
0.0835,-0.106,1.0203,-2.6412,-0.5802,0.9466,0,0,0
0.0835,-0.1072,1.0334,-0.7786,-0.8244,0.5191,0,0,0
0.0952,-0.0994,1.0198,-0.4885,-1.7176,-0.6641,0,0,0
0.0901,-0.1025,1.0237,-0.687,-1.687,-1.5038,0,0,0
0.083,-0.1135,1.0171,-0.6412,-1.1298,-1.0763,0,0,0
0.0818,-0.1106,1.0151,-0.2901,-1.1908,0.2061,0,0,0
0.0852,-0.106,1.0103,-1.0229,-1.5344,0.8397,0,0,0
0.0867,-0.0981,1.0225,-1.8397,-1.0763,1.5878,0,0,0
0.0991,-0.1008,1.0332,-1.374,-0.3893,1.9695,0,0,0
0.1077,-0.0886,1.0144,-1.6183,-0.7099,1.6412,0,0,0
0.1096,-0.0886,1.0176,-1.2137,-1.4046,0.5573,0,0,0
0.106,-0.0986,1.0261,0.2214,-1.8855,-1.3817,0,0,0
0.1074,-0.1021,1.0266,-0.0534,-1.1374,-2.2214,0,0,0
0.1042,-0.1106,1.0291,-0.542,0.145,-1.3817,0,0,0
0.0991,-0.1055,1.0281,-1.9466,1.1069,-0.9466,0,0,0
0.0959,-0.1072,1.0227,-2.4504,2.2137,-1.229,0,0,0
0.0916,-0.1003,1.0095,-4.0382,2.2214,-0.8015,0,0,0
0.0867,-0.1013,1.0217,-3.2443,1.626,-0.6947,0,0,0
0.0815,-0.1008,1.0325,-2.229,0.4809,0.2061,0,0,0
0.0825,-0.0989,1.0276,-1.8321,-0.8092,0.3282,0,0,0
0.0872,-0.104,1.0239,-2.0076,-1.5191,-0.1832,0,0,0
0.0842,-0.1057,1.0295,-1.916,-2.1069,-0.6565,0,0,0
0.0854,-0.1118,1.0237,-1.3969,-1.7176,-0.7481,0,0,0
0.0906,-0.1101,0.9912,-0.9313,-2.8702,-0.5496,0,0,0
0.0884,-0.1116,1.0117,-1.4351,-3.9466,0.0153,0,0,0
0.0857,-0.113,1.0105,-2.9313,-5.0763,1.9313,0,0,0
0.0977,-0.1072,1.0239,-1.0611,-5.1985,3.5649,0,0,0
0.1177,-0.1038,1.0225,-0.9695,-4.6031,3.8244,0,0,0
0.115,-0.105,1.0188,-2.1527,-3.7252,2.7099,0,0,0
0.125,-0.1028,1.0247,-3.7405,-2.1527,2.6947,0,0,0
0.1135,-0.1099,1.0249,-3.1679,-1.2748,2.6183,0,0,0
0.1113,-0.1172,1.0364,-0.5954,-1.3664,3.6412,0,0,0
0.0935,-0.126,1.0046,-1.5802,-3.1527,5.2977,0,0,0
0.0986,-0.1255,1.0063,-1.4809,-6.1221,7.4504,0,0,0
0.1077,-0.1318,1.022,-3.0611,-7.626,10.2366,0,0,0
0.1067,-0.1304,1.0452,-4.7557,-6.687,13.2672,0,0,0
0.0996,-0.1423,1.0476,-5.7328,-5.6565,16.8015,0,0,0
0.0867,-0.1489,1.0525,-5.0229,-5.4275,20.9924,0,0,0
0.0718,-0.1748,1.0391,-6.0763,-7.0153,28.8244,0,0,0
0.0759,-0.1245,0.9822,-2.6641,-11.9237,35.2977,0,0,0
0.1199,-0.1479,1.0188,4.6718,-16.8321,35.0,0,0,0
0.1475,-0.1184,1.0027,3.6183,-24.1145,34.8855,0,0,0
0.1736,-0.0854,1.0342,6.6031,-26.4885,29.1374,0,0,0
0.1526,-0.1287,1.0334,11.3969,-31.4351,30.7099,0,0,0
0.1814,-0.1086,1.0276,9.9466,-30.4427,30.0382,0,0,0
0.1646,-0.104,1.0105,6.4275,-27.7939,30.2977,0,0,0
0.1313,-0.124,1.0029,3.0076,-22.7863,29.771,0,0,0
0.0989,-0.1213,0.9783,2.313,-18.6107,33.084,0,0,0
0.1072,-0.1238,0.9331,2.458,-18.2901,37.4885,0,0,0
0.1292,-0.1272,0.9072,1.7786,-19.5573,41.0916,0,0,0
0.1431,-0.0889,0.9419,0.1985,-23.1985,43.4885,0,0,0
0.1101,-0.1504,0.9497,-0.5344,-25.3359,42.2061,0,0,0
0.0874,-0.0928,0.959,-3.4809,-29.0458,39.3053,0,0,0
-0.0029,-0.197,0.8967,-8.8397,-32.3511,39.7099,0,0,0
-0.0244,-0.1641,0.8569,-20.0916,-40.7863,46.2214,0,0,0
0.0896,-0.1941,0.8333,-28.2901,-47.8168,54.9389,0,0,0
0.2117,-0.0959,1.4116,-17.0076,-30.3053,54.9084,0,0,0
0.2715,-0.0352,1.2646,-3.0,-12.6183,47.5267,0,0,0
0.3098,0.0007,1.1421,0.229,-6.4046,30.8855,0,0,0
0.2952,-0.0354,1.0098,-5.8244,-10.6718,15.0076,0,0,0
0.2471,-0.051,1.0525,-10.7557,-10.4275,0.8244,0,0,0
0.2034,-0.1118,1.0088,-13.4427,-13.9237,-2.8931,0,0,0
0.1736,-0.1299,1.0234,-12.9389,-13.6412,-1.916,0,0,0
0.1609,-0.1335,0.9736,-18.0305,-10.3359,2.3282,0,0,0
0.1616,-0.1284,0.97,-16.3435,-8.1756,4.8473,0,0,0
0.1665,-0.1213,0.9771,-13.1603,-7.2748,8.7328,0,0,0
0.1931,-0.1135,1.0654,-12.5954,-1.0,9.313,0,0,0
0.2239,-0.114,0.9622,-12.916,1.3511,8.5115,0,0,0
0.2178,-0.1096,0.9514,-15.1908,4.0992,4.5038,0,0,0
0.2007,-0.1331,1.0222,-11.3588,9.4809,-4.6412,0,0,0
0.1848,-0.1541,0.9873,-12.5267,6.9924,-5.0687,0,0,0
0.166,-0.1558,1.0735,-4.687,5.2443,-6.2824,0,0,0
0.1646,-0.1594,1.0129,-1.229,0.4733,-5.1069,0,0,0
0.1616,-0.166,0.9783,0.1298,-4.9008,-3.9618,0,0,0
0.1589,-0.1562,0.9883,-2.7481,-6.458,-3.3206,0,0,0
0.1628,-0.1584,1.0049,-5.2137,-6.3588,-1.8931,0,0,0
0.1648,-0.1587,1.041,-1.6947,-3.1374,-0.9771,0,0,0
0.1399,-0.1621,0.9561,-5.0382,-3.6947,1.4198,0,0,0
0.1206,-0.1694,0.9812,-3.2824,-5.2672,3.2061,0,0,0
0.1382,-0.1533,1.0261,-1.4809,-6.4427,6.0382,0,0,0
0.1689,-0.1433,0.9958,0.7099,-5.4885,7.0611,0,0,0
0.1929,-0.1189,0.9917,1.1374,-4.1527,5.6336,0,0,0
0.2319,-0.1211,0.9819,1.229,-3.4351,2.8779,0,0,0
0.1946,-0.1401,1.0073,-0.3359,-3.0382,-0.0687,0,0,0
0.1782,-0.1692,1.0195,0.0153,-5.0534,0.7405,0,0,0
0.1904,-0.1821,1.0105,1.7023,-6.0916,3.7863,0,0,0
0.2139,-0.1514,0.9956,1.2672,-7.0076,5.542,0,0,0
0.2327,-0.1345,1.0188,0.1298,-4.374,4.1298,0,0,0
0.2507,-0.1167,1.0176,-2.8168,-1.1832,2.2824,0,0,0
0.2417,-0.1218,1.0024,-3.771,-0.0076,0.4656,0,0,0
0.2378,-0.1182,0.9912,-5.5115,-1.1832,-1.9466,0,0,0
0.2129,-0.1414,1.0132,-6.0,-0.3969,-5.0153,0,0,0
0.186,-0.1699,1.0056,-6.1985,0.7634,-4.313,0,0,0
0.1426,-0.1943,0.9902,-5.9008,2.7405,-1.8168,0,0,0
0.1348,-0.1914,0.9646,-4.2061,2.3511,3.0229,0,0,0
0.1504,-0.1814,0.9812,-5.7252,0.9924,6.0305,0,0,0
0.1829,-0.1704,0.9893,-3.3588,-0.9084,6.2366,0,0,0
0.1868,-0.1626,0.9932,-0.5573,-4.5344,3.6031,0,0,0
0.1943,-0.1621,1.011,0.4885,-5.5878,1.9542,0,0,0
0.197,-0.1663,1.0161,0.3053,-4.7405,1.6031,0,0,0
0.2,-0.1616,0.9985,0.1374,-2.4275,1.5802,0,0,0
0.2012,-0.1501,0.9932,-0.3359,-1.687,0.9695,0,0,0
0.1951,-0.1614,1.0024,0.0153,-0.1908,0.626,0,0,0
0.1868,-0.1614,0.9998,-0.0916,0.8092,0.4504,0,0,0
0.1943,-0.1538,0.9885,1.0916,0.8626,0.9924,0,0,0
0.197,-0.1641,0.9988,0.4733,1.9847,1.4427,0,0,0
0.2029,-0.1401,1.0088,0.4656,2.4885,0.5725,0,0,0
0.2122,-0.1431,0.9807,0.4504,1.6489,-0.084,0,0,0
0.1992,-0.1462,0.9976,0.2672,1.3893,-1.3893,0,0,0
0.1917,-0.1548,1.0227,-0.1832,1.8321,-1.084,0,0,0
0.1887,-0.1492,0.9998,-0.7252,3.3053,-0.6718,0,0,0
0.1934,-0.1489,1.0002,-0.4122,4.1221,-0.3435,0,0,0
0.2026,-0.1343,1.0142,-0.9618,5.6489,-1.9771,0,0,0
0.1907,-0.1541,1.0151,-2.4275,4.2214,-2.3969,0,0,0
0.1741,-0.165,0.9932,-1.313,1.1832,-1.9084,0,0,0
0.1638,-0.1711,0.9905,-0.1374,-2.3969,-0.3664,0,0,0
0.1831,-0.1646,1.0059,0.6565,-3.8931,1.4198,0,0,0
0.1895,-0.1519,1.0256,-0.4275,-2.9084,1.771,0,0,0
0.1951,-0.1453,1.0093,-1.2901,-1.0687,1.2366,0,0,0
0.1875,-0.1379,0.9941,-2.0382,-0.5191,0.2901,0,0,0
0.1912,-0.1394,1.0115,-2.5115,0.6641,-0.0382,0,0,0
0.1946,-0.1345,0.9995,-2.3282,0.4885,-0.3282,0,0,0
0.207,-0.1287,0.9873,-2.8321,0.3053,-0.9847,0,0,0
0.2126,-0.1414,1.0085,-3.8397,0.7405,-3.2519,0,0,0
0.1873,-0.1628,1.0056,-4.0992,1.9695,-4.5573,0,0,0
0.1685,-0.1775,0.9795,-3.2519,0.8779,-3.1908,0,0,0
0.1558,-0.1799,1.0122,-2.5878,0.4885,-0.6565,0,0,0
0.1716,-0.168,1.0168,-1.8321,0.3359,2.458,0,0,0
0.1909,-0.1589,1.0054,-1.7557,1.2519,3.4504,0,0,0
0.2131,-0.1362,1.0049,-1.9008,1.8702,2.313,0,0,0
0.2222,-0.1316,0.9858,-2.5878,2.5038,-0.5954,0,0,0
0.2253,-0.1282,0.9954,-3.2595,1.7405,-4.2366,0,0,0
0.2075,-0.1487,1.0181,-3.771,2.855,-7.4275,0,0,0
0.1836,-0.1694,1.0154,-3.0458,3.2824,-7.8397,0,0,0
0.1692,-0.1687,0.9805,-2.9695,3.9771,-6.9008,0,0,0
0.1521,-0.1724,0.9868,-2.7863,3.916,-4.7252,0,0,0
0.1504,-0.1797,0.9988,-1.9084,3.4809,-2.084,0,0,0
0.1533,-0.1721,0.9836,-0.0611,1.9389,0.542,0,0,0
0.1692,-0.1589,1.0037,0.7481,0.4885,0.6489,0,0,0
0.186,-0.1465,0.9956,0.9008,-0.5344,0.1145,0,0,0
0.1917,-0.1394,0.9934,1.1069,-0.145,-1.9084,0,0,0
0.1863,-0.1521,1.0083,0.2901,0.5802,-2.6031,0,0,0
0.177,-0.1528,1.0076,0.9771,1.6641,-2.7176,0,0,0
0.1929,-0.1448,1.0024,-0.687,1.5344,-2.6336,0,0,0
0.1919,-0.1467,1.0107,-0.3511,0.8015,-4.2214,0,0,0
0.1843,-0.1562,0.9939,-0.3435,-0.6031,-5.0611,0,0,0
0.1721,-0.1633,1.0037,0.0458,-1.7252,-3.7481,0,0,0
0.1709,-0.1658,1.0142,0.3893,-1.9618,-1.3435,0,0,0
0.1785,-0.1545,1.0049,0.5267,-1.5725,0.5344,0,0,0
0.1938,-0.144,1.0024,-0.2061,-0.9389,1.0458,0,0,0
0.1992,-0.1335,1.0229,-0.7252,-0.0458,0.4962,0,0,0
0.2012,-0.1323,1.0115,-0.9618,0.771,-0.2519,0,0,0
0.1965,-0.1306,0.9946,-1.9237,2.5115,-1.2061,0,0,0
0.1902,-0.1277,0.9963,-3.1145,3.313,-1.7939,0,0,0
0.1875,-0.1384,0.9961,-3.4962,3.8779,-2.1374,0,0,0
0.1733,-0.146,1.0029,-3.5954,4.2977,-2.5649,0,0,0
0.1685,-0.1628,1.0059,-3.9237,3.9466,-2.374,0,0,0
0.1575,-0.1667,0.9998,-3.8473,3.8855,-0.6794,0,0,0
0.166,-0.1621,1.0149,-2.3282,2.0382,0.8702,0,0,0
0.1694,-0.1531,1.001,-2.145,1.0687,0.4351,0,0,0
0.1775,-0.1497,1.0073,-1.855,-0.458,0.2672,0,0,0
0.1775,-0.1521,1.001,-2.1832,-0.374,-0.4427,0,0,0
0.1738,-0.1589,1.0115,-2.313,-0.0763,-0.855,0,0,0
0.1685,-0.1528,1.0132,-2.3206,0.1374,-0.9008,0,0,0
0.1755,-0.1545,0.9941,-2.1908,-0.6183,-0.6718,0,0,0
0.1724,-0.147,1.0022,-1.6947,-0.7023,-1.2672,0,0,0
0.175,-0.1548,0.9973,-1.6641,0.9389,-1.0,0,0,0
0.1814,-0.1506,0.9954,-2.0305,1.0,-0.6336,0,0,0
0.1809,-0.1538,1.0044,-2.3435,1.6947,-0.7099,0,0,0
0.1899,-0.1533,0.9958,-1.8702,0.5573,-1.0992,0,0,0
0.1868,-0.155,1.0046,-1.1832,-0.3664,-2.0305,0,0,0
0.1738,-0.1636,1.0171,-1.1527,-0.4427,-1.8015,0,0,0
0.1755,-0.1587,1.0129,-1.0076,0.3664,-1.0229,0,0,0
0.1792,-0.1558,1.0149,-1.1603,1.5115,-0.0916,0,0,0
0.1836,-0.1443,0.9983,-1.3435,1.7939,-0.3588,0,0,0
0.1882,-0.1375,1.0005,-1.3511,1.3435,-2.4427,0,0,0
0.1887,-0.1475,0.9988,-1.5573,1.1298,-3.8855,0,0,0
0.1772,-0.1584,1.0034,-1.6031,-0.5038,-4.0611,0,0,0
0.1567,-0.1636,1.0046,-0.2137,-1.5038,-2.8931,0,0,0
0.1624,-0.1611,1.0042,0.0687,-1.2137,-1.4198,0,0,0
0.167,-0.1572,1.012,-0.2137,-0.0763,-0.4504,0,0,0
0.1687,-0.1489,1.0178,-0.5191,1.6565,-0.2748,0,0,0
0.175,-0.1479,0.9961,-0.4046,2.0992,-0.229,0,0,0
0.1777,-0.1404,1.0044,-0.6489,1.5115,-1.1298,0,0,0
0.1758,-0.1426,0.9976,0.0153,0.3206,-1.8779,0,0,0
0.1736,-0.1458,1.0081,-0.145,-0.0458,-2.4962,0,0,0
0.1641,-0.1558,1.0034,-0.7786,0.2366,-1.8473,0,0,0
0.1589,-0.1553,0.9924,0.4351,-1.2366,-1.6565,0,0,0
0.1741,-0.1577,1.0173,0.3969,-1.9466,-1.5191,0,0,0
0.1763,-0.1511,1.0122,0.8397,-2.6947,-0.9771,0,0,0
0.1765,-0.1418,1.0098,0.6947,-3.1298,-0.7405,0,0,0
0.1819,-0.1443,1.0112,0.9389,-2.5725,-0.8321,0,0,0
0.1902,-0.1372,0.9954,0.1985,-1.1298,-1.542,0,0,0
0.1841,-0.1409,1.0034,-0.6107,1.0153,-2.8626,0,0,0
0.1702,-0.1387,1.0015,-0.6794,2.6718,-3.0458,0,0,0
0.1729,-0.1465,0.9934,-0.5802,3.3893,-2.2443,0,0,0
0.1799,-0.1401,0.999,-0.6107,2.7557,-2.0611,0,0,0
0.1846,-0.1321,0.9983,-0.3435,1.8626,-3.2748,0,0,0
0.1809,-0.1389,1.0056,-0.2443,1.084,-5.4733,0,0,0
0.1594,-0.1606,1.0093,-0.2595,1.4427,-5.8168,0,0,0
0.1362,-0.1687,1.0032,0.8015,1.4122,-3.855,0,0,0
0.1438,-0.1672,1.0085,1.3969,1.8092,-1.3511,0,0,0
0.155,-0.1658,1.0283,-0.5496,2.3969,0.3206,0,0,0
0.1726,-0.1384,1.0015,-3.0916,6.7176,-0.2824,0,0,0
0.1775,-0.1443,1.0168,-1.5344,7.4046,-1.1069,0,0,0
0.1702,-0.1514,1.0286,-3.5954,9.1527,-3.7786,0,0,0
0.1709,-0.134,0.9919,0.8855,7.2137,-5.3282,0,0,0
0.1633,-0.1389,1.0427,-1.6183,7.9771,-6.9084,0,0,0
0.1587,-0.146,1.03,1.3435,9.626,-8.5191,0,0,0
0.1687,-0.1355,1.1238,4.7176,11.9924,-8.5267,0,0,0
0.1689,-0.124,1.2114,12.1832,22.1832,-10.3893,0,0,0
0.177,-0.1411,1.2581,23.9466,31.9924,-6.0305,0,0,0
0.2051,-0.1174,1.1968,32.6031,42.1756,-10.2901,0,0,0
0.1982,-0.1033,1.0417,39.0382,47.6489,-19.2672,0,0,0
0.218,-0.1301,0.874,43.916,46.2061,-31.7939,0,0,0
0.1826,-0.2354,0.8723,39.8015,36.6183,-41.1374,0,0,0
0.1033,-0.1033,0.8406,15.374,30.8015,-44.4962,0,0,0
0.0603,-0.1328,0.9333,7.7557,30.626,-38.9466,0,0,0
0.041,-0.147,0.9968,10.374,32.1756,-30.2824,0,0,0
0.0552,-0.1084,1.0598,15.5496,37.0687,-22.5114,0,0,0
0.083,-0.0828,1.0466,15.6947,38.7328,-18.7252,0,0,0
0.0906,-0.0583,1.0132,12.0687,37.2214,-18.0153,0,0,0
0.0962,-0.0627,0.9885,15.8855,34.5573,-19.8473,0,0,0
0.1016,-0.0439,0.9629,19.084,29.4122,-22.4351,0,0,0
0.1128,-0.0376,0.9507,14.9618,21.6565,-24.2443,0,0,0
0.0977,-0.0454,0.9375,13.3893,19.1374,-29.1603,0,0,0
0.1013,-0.0359,1.0078,12.458,17.374,-32.3893,0,0,0
0.0898,-0.0476,1.0166,9.1832,18.313,-34.3435,0,0,0
0.0728,-0.0645,1.0498,5.3893,18.9695,-34.0687,0,0,0
0.0515,-0.0732,1.0762,5.3511,21.5954,-31.8626,0,0,0
0.0303,-0.064,1.1123,5.9084,24.916,-28.3969,0,0,0
0.0242,-0.0735,1.1267,8.7863,30.542,-25.2214,0,0,0
0.0364,-0.064,1.0999,12.2977,34.8855,-22.771,0,0,0
0.0347,-0.0481,1.0688,14.6718,36.0611,-22.5114,0,0,0
0.0159,-0.0371,1.0562,16.458,35.6107,-22.9389,0,0,0
0.0071,-0.0315,0.9949,18.8168,32.8473,-23.9695,0,0,0
-0.0044,-0.0315,1.0356,15.1756,29.1221,-22.7176,0,0,0
-0.0237,-0.042,1.0706,13.6183,30.1756,-19.8092,0,0,0
-0.0327,-0.0354,1.0884,15.2443,32.9466,-15.9389,0,0,0
-0.0229,-0.0276,1.0732,17.8702,36.3511,-12.4198,0,0,0
-0.0027,-0.0017,1.0618,20.1908,41.1221,-9.8702,0,0,0
0.0107,-0.0142,1.0181,22.9313,42.8092,-8.1679,0,0,0
0.0093,0.0093,0.9932,26.7176,43.0687,-8.9313,0,0,0
0.0134,0.0542,0.9687,21.0153,41.8626,-13.1603,0,0,0
0.0066,0.0393,0.9705,12.0229,38.5191,-17.3893,0,0,0
-0.0112,0.0364,0.9985,5.1908,35.7939,-20.3282,0,0,0
-0.0266,0.0305,1.0137,0.8473,36.0611,-20.8321,0,0,0
-0.031,0.0168,1.0142,0.1221,36.0229,-19.3511,0,0,0
-0.0393,0.03,1.041,-1.0611,38.229,-19.2443,0,0,0
-0.0457,0.0212,1.0266,-0.9847,40.6794,-20.5344,0,0,0
-0.0449,0.0303,0.9976,-0.0611,41.9771,-24.3053,0,0,0
-0.0459,0.0452,0.9983,-0.3893,40.7405,-29.1756,0,0,0
-0.0557,0.0344,1.0195,-1.8626,40.0611,-35.0763,0,0,0
-0.0623,0.0244,1.0627,-2.2366,42.2824,-39.5267,0,0,0
-0.0774,0.0283,1.0972,-3.1832,48.6336,-43.1603,0,0,0
-0.093,0.0159,1.1174,-1.3359,58.7023,-46.7176,0,0,0
-0.1028,0.0295,1.1064,1.5038,69.2061,-50.3588,0,0,0
-0.1238,0.0071,1.0408,0.1221,74.0076,-50.2977,0,0,0
-0.1868,-0.0054,0.9856,-3.7252,70.9847,-46.4275,0,0,0
-0.2117,-0.0098,0.9622,-8.1145,62.3588,-43.2519,0,0,0
-0.2329,-0.0454,0.9556,-8.3359,53.7634,-38.2901,0,0,0
-0.2402,-0.0415,0.9741,-4.8702,45.6489,-34.4046,0,0,0
-0.2493,-0.0383,0.9827,-1.7176,38.2977,-32.7786,0,0,0
-0.2539,-0.0168,0.9773,3.2824,33.2519,-34.0,0,0,0
-0.2476,-0.054,1.0283,10.2901,32.5496,-33.3206,0,0,0
-0.2449,-0.0342,1.0315,9.374,32.5649,-34.1985,0,0,0
-0.2612,-0.0405,1.0242,10.916,32.2824,-34.6107,0,0,0
-0.2512,-0.0457,1.0137,11.3359,33.7099,-35.1145,0,0,0
-0.2734,-0.011,1.01,9.2977,29.2061,-33.4733,0,0,0
-0.2732,-0.0542,1.0237,10.3435,25.3053,-32.7023,0,0,0
-0.2795,-0.0435,1.0483,17.2901,24.4275,-31.6718,0,0,0
-0.2881,-0.041,1.0691,22.6107,27.1603,-31.5954,0,0,0
-0.2949,-0.0417,1.0674,21.5725,30.5802,-33.4046,0,0,0
-0.3066,-0.0566,1.0542,27.8473,34.9237,-32.3435,0,0,0
-0.325,-0.062,1.0325,35.374,36.5267,-28.3206,0,0,0
-0.3352,-0.0703,1.0068,43.4046,35.7863,-20.7252,0,0,0
-0.354,-0.0496,1.0342,46.0,39.6412,-14.4198,0,0,0
-0.373,-0.0745,0.9912,51.9084,35.5115,-2.374,0,0,0
-0.3792,0.0022,1.0078,50.4885,32.542,5.4351,0,0,0
-0.3579,-0.0068,1.0305,49.5725,35.0153,9.8931,0,0,0
-0.355,-0.0251,1.0093,52.4046,37.7481,16.5725,0,0,0
-0.355,0.0049,0.9678,56.5038,38.2519,22.8015,0,0,0
-0.3674,0.0164,0.9565,55.7176,36.8397,28.6489,0,0,0
-0.3801,0.0271,0.9832,49.4275,36.4198,33.7405,0,0,0
-0.3931,0.0369,0.9807,45.1756,37.5344,40.4351,0,0,0
-0.3877,0.0469,0.9419,41.1374,37.313,49.2137,0,0,0
-0.3713,0.0701,0.9065,36.6794,34.313,58.4809,0,0,0
-0.365,0.0935,0.8704,35.3893,30.1221,67.313,0,0,0
-0.3442,0.0942,0.8623,32.4656,25.2061,73.7328,0,0,0
-0.3528,0.0916,0.8606,25.7405,21.145,77.6718,0,0,0
-0.3772,0.1201,0.8677,16.542,19.4122,78.2595,0,0,0
-0.3896,0.1316,0.887,11.4809,18.1985,78.4809,0,0,0
-0.3787,0.1335,0.8777,7.0916,15.0305,81.458,0,0,0
-0.3616,0.1233,0.8528,2.1527,9.8397,86.9771,0,0,0
-0.3501,0.1667,0.8611,-0.8168,5.2214,91.9389,0,0,0
-0.3357,0.1763,0.8499,-3.6718,1.7023,94.8473,0,0,0
-0.3184,0.2063,0.8628,-9.3893,-2.2672,93.4122,0,0,0
-0.3052,0.1995,0.8777,-14.9771,-5.5191,89.6565,0,0,0
-0.2986,0.1868,0.9119,-18.1832,-7.0153,86.397,0,0,0
-0.3032,0.2046,0.9177,-21.4275,-7.7557,82.458,0,0,0
-0.2969,0.1853,0.939,-20.9008,-7.7557,78.9313,0,0,0
-0.3008,0.2209,0.9556,-24.4504,-5.4656,75.7481,0,0,0
-0.2954,0.2356,0.9458,-29.2519,-3.687,70.855,0,0,0
-0.2776,0.2375,0.9287,-28.6031,-4.6031,66.5802,0,0,0
-0.2612,0.2197,0.9216,-26.8092,-5.5496,62.1832,0,0,0
-0.2644,0.2002,0.9246,-24.5649,-8.8779,58.4504,0,0,0
-0.2837,0.1948,0.9045,-23.2672,-13.4809,56.1908,0,0,0
-0.3074,0.1968,0.9331,-19.7405,-19.3206,55.1298,0,0,0
-0.3057,0.2361,0.9128,-19.7023,-24.1756,52.4809,0,0,0
-0.2764,0.2214,0.928,-20.7634,-27.084,49.7634,0,0,0
-0.2627,0.22,0.9897,-16.5878,-29.8702,49.2824,0,0,0
-0.2393,0.2273,0.9707,-17.3206,-29.7099,47.2748,0,0,0
-0.2468,0.2075,0.9756,-16.7176,-29.3053,46.0153,0,0,0
-0.2607,0.2063,0.9788,-17.9084,-27.5191,45.6412,0,0,0
-0.2556,0.2234,0.9807,-19.7481,-25.6031,45.3969,0,0,0
-0.23,0.2168,0.9949,-22.2595,-23.313,45.2214,0,0,0
-0.2034,0.2307,1.0183,-22.4809,-19.5267,45.0229,0,0,0
-0.1934,0.2239,1.0256,-21.0763,-15.7939,43.9313,0,0,0
-0.1931,0.2222,1.0166,-18.4427,-12.9466,42.5573,0,0,0
-0.1963,0.2222,1.0085,-16.5954,-10.3435,39.3359,0,0,0
-0.2053,0.2197,0.9792,-14.1908,-10.3282,36.3282,0,0,0
-0.2146,0.2053,0.96,-11.3588,-11.9542,33.6947,0,0,0
-0.2134,0.2156,0.9265,-11.5344,-15.8244,31.9924,0,0,0
-0.2024,0.2207,0.8911,-14.0916,-21.8321,30.5802,0,0,0
-0.2007,0.2087,0.9014,-18.1298,-28.542,30.2366,0,0,0
-0.1953,0.2292,0.9268,-24.2519,-31.3664,29.0,0,0,0
-0.2004,0.2175,0.958,-31.7328,-32.8168,27.5802,0,0,0
-0.1887,0.2151,1.04,-34.4046,-33.2443,27.5802,0,0,0
-0.1968,0.2058,0.9805,-39.5496,-31.542,26.7023,0,0,0
-0.1907,0.1882,0.9565,-40.7481,-31.6641,25.8168,0,0,0
-0.1704,0.1882,0.9478,-42.0763,-32.3893,25.0076,0,0,0
-0.1516,0.1987,0.9666,-44.5496,-32.7863,22.7786,0,0,0
-0.1438,0.1865,0.9961,-50.2748,-32.1221,19.6718,0,0,0
-0.1372,0.1707,1.0305,-56.0992,-29.0382,16.8626,0,0,0
-0.1345,0.1638,1.0632,-58.7634,-24.7481,13.7634,0,0,0
-0.1443,0.1055,1.0789,-60.1756,-19.1756,13.0763,0,0,0
-0.1516,0.1182,1.0869,-52.0305,-18.8779,14.5802,0,0,0
-0.144,0.1189,1.0542,-42.6031,-20.0305,13.458,0,0,0
-0.1147,0.1396,1.0249,-35.5344,-24.0916,9.771,0,0,0
-0.1091,0.1531,1.0212,-30.0992,-29.0153,2.2443,0,0,0
-0.0955,0.1455,1.0063,-26.0382,-33.6718,-7.6031,0,0,0
-0.0881,0.1162,1.0083,-24.4198,-37.7405,-15.6718,0,0,0
-0.0981,0.0972,1.0278,-24.6489,-39.2137,-20.3053,0,0,0
-0.1296,0.0923,1.0835,-22.4885,-39.2519,-20.7405,0,0,0
-0.158,0.074,1.072,-21.8473,-39.2748,-17.6718,0,0,0
-0.1611,0.063,1.0588,-20.5114,-36.7634,-14.4809,0,0,0
-0.1414,0.0432,1.0276,-16.3206,-35.3664,-9.1603,0,0,0
-0.1162,0.0479,1.0273,-14.626,-34.7328,-4.5496,0,0,0
-0.094,0.072,1.0237,-14.229,-34.6412,-2.4427,0,0,0
-0.0771,0.0781,1.0327,-13.4427,-33.4885,-3.6947,0,0,0
-0.0789,0.0449,1.0496,-12.6107,-32.4733,-3.7634,0,0,0
-0.0869,0.0461,1.0593,-11.7863,-31.1756,-3.2519,0,0,0
-0.0869,0.0466,1.0662,-11.9847,-30.5802,-0.5802,0,0,0
-0.0796,0.0466,1.062,-9.1679,-29.6336,2.0611,0,0,0
-0.0486,0.0491,1.0557,-5.916,-28.0916,4.7481,0,0,0
-0.0271,0.0586,1.042,-3.0458,-27.4962,6.626,0,0,0
-0.011,0.0693,1.0317,-2.8092,-28.5649,6.0916,0,0,0
0.0042,0.0774,1.0317,-1.3053,-28.7176,4.5649,0,0,0
0.0156,0.0591,1.0676,-0.2977,-26.5496,2.8779,0,0,0
0.0063,0.0623,1.0759,0.7634,-22.2824,2.6489,0,0,0
0.0264,0.074,1.0564,1.1908,-18.145,1.5344,0,0,0
0.0359,0.0757,1.0566,1.1908,-13.0076,-0.5038,0,0,0
0.0447,0.0923,1.0332,1.3664,-9.9313,-2.8092,0,0,0
0.0442,0.0881,1.0212,-1.1908,-9.1374,-5.626,0,0,0
0.0569,0.1001,1.0022,-3.1908,-9.9618,-9.7023,0,0,0
0.0393,0.1067,1.0254,-3.0687,-12.6641,-12.5802,0,0,0
0.0273,0.0874,1.0027,-2.4962,-15.9313,-16.6565,0,0,0
0.0183,0.0806,1.01,-0.3435,-20.5344,-20.458,0,0,0
0.0186,0.0786,1.0034,1.855,-24.3969,-23.3893,0,0,0
0.0291,0.0752,1.0154,3.2443,-26.1221,-26.5802,0,0,0
0.0249,0.0562,1.0591,2.8855,-23.2519,-28.4504,0,0,0
-0.0007,0.0547,1.0347,4.771,-19.1985,-28.3511,0,0,0
-0.0054,0.0647,1.0317,5.1145,-15.7863,-28.0305,0,0,0
0.0054,0.0593,1.0137,3.7481,-12.626,-26.1679,0,0,0
0.0112,0.0664,0.998,3.0,-10.458,-24.8168,0,0,0
0.0278,0.0847,0.9917,1.6794,-9.4962,-24.8092,0,0,0
0.0525,0.1038,0.9827,-0.6183,-10.2519,-26.3435,0,0,0
0.0552,0.0869,1.0056,-3.8397,-10.8244,-29.4198,0,0,0
0.0476,0.0718,1.0337,-4.5725,-10.7634,-32.4275,0,0,0
0.0303,0.0422,1.0454,-2.0305,-10.5191,-33.4885,0,0,0
0.0261,0.0449,1.0342,1.3282,-10.6183,-32.7634,0,0,0
0.0195,0.0369,1.022,5.9618,-12.0,-31.0687,0,0,0
0.0313,0.0496,1.002,6.0916,-14.4504,-29.0992,0,0,0
0.0439,0.0593,1.0112,3.9313,-16.2443,-27.6718,0,0,0
0.0505,0.0725,1.0181,1.6031,-15.6565,-27.2519,0,0,0
0.0657,0.0859,1.0391,0.8931,-13.2824,-26.4504,0,0,0
0.0823,0.0864,1.0515,0.7481,-9.6947,-26.4504,0,0,0
0.0667,0.0681,1.0676,-0.3435,-4.7557,-27.0992,0,0,0
0.0459,0.0435,1.0649,0.5649,0.2824,-26.4656,0,0,0
0.0305,0.0369,1.0432,0.855,2.7557,-24.916,0,0,0
0.0337,0.0398,1.0276,0.0611,2.3893,-21.9924,0,0,0
0.0366,0.0535,1.0186,-0.1298,1.374,-19.6412,0,0,0
0.042,0.0679,1.0173,0.2214,-1.3664,-18.3969,0,0,0
0.0618,0.0757,1.0227,-0.2901,-2.8397,-19.5802,0,0,0
0.0703,0.0784,1.0305,-0.2061,-3.9008,-21.374,0,0,0
0.0493,0.0574,1.0452,0.0229,-3.542,-22.5344,0,0,0
0.0327,0.0496,1.0457,0.2137,-2.2366,-22.2595,0,0,0
0.0129,0.0303,1.0549,2.542,-2.1527,-18.6412,0,0,0
0.0059,0.0298,1.0562,2.542,-0.8855,-12.6641,0,0,0
0.0205,0.04,1.0525,1.8397,-0.0382,-6.6641,0,0,0
0.0376,0.0542,1.05,1.5573,1.5573,-3.7863,0,0,0
0.0408,0.0576,1.0522,0.8931,3.0534,-1.7939,0,0,0
0.042,0.0684,1.0569,0.7939,4.7328,-1.3893,0,0,0
0.0479,0.0708,1.0569,0.7557,5.8473,-1.8168,0,0,0
0.0557,0.0789,1.0596,0.7023,6.8473,-2.1985,0,0,0
0.0652,0.0786,1.0601,2.1679,8.6794,-3.0763,0,0,0
0.0781,0.0896,1.0647,3.8015,10.9466,-5.0305,0,0,0
0.0654,0.0872,1.0647,3.6107,13.7557,-7.4733,0,0,0
0.0615,0.0881,1.0566,3.4504,16.4275,-8.6947,0,0,0
0.0344,0.0754,1.0471,5.0611,17.0992,-8.1908,0,0,0
0.0286,0.0754,1.0273,6.5878,15.2672,-7.2901,0,0,0
0.0286,0.0842,1.0225,7.3588,12.5649,-6.9466,0,0,0
0.0239,0.0774,1.0142,6.9237,10.9084,-7.0763,0,0,0
0.0159,0.0815,1.0203,7.1145,10.8168,-7.1985,0,0,0
0.0073,0.0745,1.04,5.2443,13.4046,-6.3817,0,0,0
-0.0061,0.0754,1.0386,2.5954,16.9924,-4.3969,0,0,0
-0.0066,0.073,1.0366,0.7634,21.458,-2.0611,0,0,0
-0.0166,0.0632,1.0217,-2.7634,25.2214,0.9771,0,0,0
-0.0393,0.0461,1.0125,-5.7328,26.6412,5.9695,0,0,0
-0.0789,0.0205,1.0073,-8.5649,25.2443,12.5191,0,0,0
-0.1047,0.0225,1.0061,-8.0229,22.4198,20.0916,0,0,0
-0.1028,0.012,1.0437,-7.9924,21.3664,28.5114,0,0,0
-0.0715,0.0405,1.0491,-7.145,21.5114,35.4122,0,0,0
-0.0264,0.0701,1.0356,-5.0687,22.0305,39.0611,0,0,0
0.0063,0.0986,1.0164,-2.8931,21.5573,37.313,0,0,0
0.0129,0.1108,0.9807,-0.5725,18.313,32.6947,0,0,0
0.0129,0.1211,0.9675,0.1985,12.8702,26.2519,0,0,0
0.0083,0.1255,0.969,-1.5649,6.771,20.4733,0,0,0
-0.0046,0.106,0.9731,-2.3206,1.1145,17.1527,0,0,0
-0.0024,0.1052,0.9788,-1.8397,-4.0153,15.8168,0,0,0
0.0022,0.1003,0.9712,-1.2672,-8.542,14.9237,0,0,0
0.0029,0.1008,0.9954,-0.6336,-10.5115,13.7481,0,0,0
0.0032,0.1033,1.0327,-1.9695,-9.1908,13.0916,0,0,0
0.0127,0.1104,1.0339,-2.4809,-6.4351,12.3893,0,0,0
0.0142,0.1038,1.0266,-3.1832,-3.4733,11.4275,0,0,0
-0.0046,0.0942,1.0132,-4.3511,-1.229,10.4885,0,0,0
-0.0286,0.074,0.9858,-5.5802,-0.6183,11.145,0,0,0
-0.04,0.0706,0.9802,-8.6107,-2.1069,14.2748,0,0,0
-0.0452,0.0781,0.9915,-12.8092,-3.6794,18.2214,0,0,0
-0.0298,0.0723,1.0078,-15.3435,-4.0,22.1145,0,0,0
-0.0076,0.0754,1.0305,-15.5344,-4.0687,24.7481,0,0,0
0.0024,0.0608,1.0415,-13.855,-3.8168,24.8092,0,0,0
0.0039,0.0864,1.0437,-11.7557,-3.6489,22.4809,0,0,0
0.0117,0.0938,1.0447,-10.8931,-3.8092,20.0229,0,0,0
0.0171,0.0889,1.0464,-10.7023,-3.9237,17.4046,0,0,0
0.0154,0.0842,1.0398,-9.6031,-4.3588,14.3053,0,0,0
0.0093,0.0823,1.0417,-9.4046,-4.3282,11.7634,0,0,0
-0.0049,0.072,1.0732,-10.6641,-2.8931,10.7176,0,0,0
-0.0112,0.0701,1.0757,-7.8931,-0.7481,10.5115,0,0,0
-0.009,0.0618,1.0674,-3.2748,1.5725,11.1069,0,0,0
-0.0117,0.0625,1.0681,-1.374,5.0458,11.0916,0,0,0
-0.0142,0.0688,1.0417,-0.7634,6.6947,10.7557,0,0,0
-0.0186,0.071,1.012,-1.8092,7.3893,10.0534,0,0,0
-0.0273,0.072,1.0059,-5.5038,7.458,9.7405,0,0,0
-0.0356,0.064,1.0083,-8.9237,6.3435,10.7557,0,0,0
-0.0344,0.0637,1.0105,-11.0,5.0534,12.9389,0,0,0
-0.0239,0.0588,1.0188,-10.313,3.1145,14.5496,0,0,0
-0.0078,0.0674,1.0032,-6.9237,0.0534,15.0229,0,0,0
-0.002,0.0647,1.011,-4.7328,-3.1298,13.626,0,0,0
-0.001,0.0642,1.0344,-3.8702,-5.0,12.374,0,0,0
0.0002,0.0752,1.0383,-3.5038,-5.7099,11.0992,0,0,0
0.0171,0.0859,1.0505,-3.3588,-5.4733,10.0992,0,0,0
0.0293,0.0935,1.0554,-2.9771,-3.4809,8.0534,0,0,0
0.0383,0.0974,1.0464,-2.1603,-1.2977,4.6565,0,0,0
0.0396,0.1006,1.0452,-2.4122,0.9847,1.229,0,0,0
0.0269,0.0872,1.0388,-2.3435,2.1908,-2.0,0,0,0
0.0024,0.0752,1.0305,-1.8321,3.0229,-3.6718,0,0,0
-0.0132,0.0601,1.0242,-1.5725,2.6718,-3.3969,0,0,0
-0.0251,0.0576,1.012,-2.7328,1.7863,-1.687,0,0,0
-0.0259,0.0566,1.0159,-3.8321,0.2519,0.3206,0,0,0
-0.0283,0.0654,1.0286,-2.9237,-0.6947,1.5725,0,0,0
-0.0154,0.0686,1.0303,-2.0153,-1.5267,2.0611,0,0,0
-0.0029,0.0757,1.04,-1.1298,-1.4351,0.8473,0,0,0
-0.0005,0.0752,1.0295,-0.374,-1.4351,-0.2443,0,0,0
-0.0066,0.0725,1.0369,-0.6107,-0.8092,-1.2748,0,0,0
-0.009,0.0649,1.0332,-1.6489,-0.0076,-1.4656,0,0,0
-0.0122,0.0618,1.0383,-2.4122,0.4733,-1.145,0,0,0
-0.02,0.0576,1.0264,-2.0916,0.2137,0.084,0,0,0
-0.0146,0.0691,1.0308,-2.0305,-0.7099,1.0916,0,0,0
-0.0112,0.0693,1.033,-2.1832,-0.855,1.4885,0,0,0
0.0056,0.0681,1.033,-0.9084,-0.7252,0.6794,0,0,0
0.0071,0.0737,1.0198,-0.2443,-0.1374,-1.2672,0,0,0
-0.0012,0.071,1.0295,-0.8092,0.4122,-2.9084,0,0,0
-0.0137,0.0579,1.0325,-2.3664,1.4198,-3.0,0,0,0
-0.0305,0.0491,1.0381,-2.5344,2.1679,-1.9008,0,0,0
-0.0378,0.0459,1.0144,-2.0153,1.5878,-0.4046,0,0,0
-0.0313,0.0566,1.011,-2.4885,0.687,1.4809,0,0,0
-0.0205,0.0596,1.0149,-2.4885,-0.2672,2.2366,0,0,0
-0.0203,0.0588,1.02,-2.9466,-0.6718,2.2595,0,0,0
-0.0161,0.0547,1.0295,-3.6183,-0.3282,1.6107,0,0,0
-0.0222,0.0579,1.0254,-3.687,-0.2137,1.687,0,0,0
-0.0161,0.0542,1.0322,-3.6794,-1.0153,1.9542,0,0,0
-0.0205,0.051,1.0381,-3.2519,-1.7634,1.3969,0,0,0
-0.0098,0.0515,1.0427,-1.7939,-2.0305,1.2595,0,0,0
-0.0098,0.0483,1.0396,-0.9618,-1.3206,0.9084,0,0,0
-0.009,0.0552,1.0386,-0.916,-0.5496,1.1756,0,0,0
-0.0156,0.053,1.0339,-2.0382,0.3206,0.8702,0,0,0
-0.0227,0.0586,1.0308,-2.0611,1.1069,0.9466,0,0,0
-0.0212,0.0464,1.0322,-2.4885,1.6412,1.6412,0,0,0
-0.0313,0.0557,1.0295,-3.145,1.8931,2.5344,0,0,0
-0.0332,0.0435,1.0278,-3.2824,2.0916,3.6336,0,0,0
-0.0308,0.0408,1.0229,-3.8015,2.7023,5.1679,0,0,0
-0.0242,0.0496,1.0161,-4.0382,1.8168,6.5344,0,0,0
-0.0154,0.0591,1.0215,-5.2214,1.771,6.4275,0,0,0
-0.0164,0.0576,1.033,-6.4198,2.313,6.1908,0,0,0
-0.019,0.0559,1.0381,-6.5954,2.8855,5.6336,0,0,0
-0.0149,0.0566,1.0339,-5.6641,3.5573,5.6718,0,0,0
-0.0066,0.0574,1.0264,-5.2672,3.9695,5.1298,0,0,0
-0.0042,0.0579,1.0242,-3.8168,3.4809,4.4885,0,0,0
-0.0071,0.0505,1.0264,-4.4427,2.9924,3.7557,0,0,0
-0.0261,0.0459,1.031,-4.7557,3.1985,3.5725,0,0,0
-0.0332,0.0393,1.0386,-5.0763,3.6718,4.2595,0,0,0
-0.0298,0.0408,1.0361,-6.0229,4.0611,5.4427,0,0,0
-0.0273,0.051,1.0483,-5.8855,4.7557,5.9847,0,0,0
-0.0225,0.0562,1.0435,-4.0153,4.9618,6.0992,0,0,0
-0.022,0.0591,1.0283,-3.4427,3.7252,4.8244,0,0,0
-0.0205,0.0586,1.0139,-2.5038,2.1603,3.2595,0,0,0
-0.0198,0.0649,1.0161,-2.2748,0.0382,1.7023,0,0,0
-0.0205,0.0505,1.0254,-3.145,-1.4122,1.374,0,0,0
-0.0217,0.0579,1.0264,-3.0611,-2.2519,1.4198,0,0,0
-0.0195,0.0586,1.0393,-2.4656,-1.7634,1.1374,0,0,0
-0.0149,0.0503,1.0518,-1.3282,-0.8321,1.0916,0,0,0
-0.0117,0.0566,1.0364,0.3969,-0.3435,0.6336,0,0,0
-0.0183,0.0474,1.0264,0.4885,-0.2443,-0.3359,0,0,0
-0.0186,0.0493,1.0249,-0.6336,-1.7176,-0.5573,0,0,0
-0.0249,0.0493,1.0142,-1.1527,-2.5649,-0.9313,0,0,0
-0.0229,0.0518,1.0247,-1.9466,-3.1374,-0.5878,0,0,0
-0.0178,0.05,1.0283,-2.4275,-1.687,0.3817,0,0,0
-0.0146,0.0549,1.0503,-2.2137,-0.4656,0.9542,0,0,0
-0.0156,0.0483,1.0388,-2.084,0.8015,1.145,0,0,0
-0.0105,0.0522,1.0237,-0.7863,1.1527,0.1679,0,0,0
-0.0137,0.0408,1.0208,-0.2366,-0.0076,-1.5267,0,0,0
-0.0281,0.0449,1.0083,-0.084,-1.3282,-2.0687,0,0,0
-0.0264,0.0471,1.0154,-1.0153,-2.0,-1.4427,0,0,0
-0.0269,0.0444,1.0154,-1.8397,-2.1832,-0.2977,0,0,0
-0.021,0.0481,1.0232,-2.6107,-1.3511,0.1603,0,0,0
-0.0107,0.0527,1.0063,-2.9389,-0.3664,-0.1832,0,0,0
-0.0181,0.0498,1.0078,-5.0458,0.5191,-0.5496,0,0,0
-0.0259,0.0552,1.0027,-7.0687,0.1985,-0.313,0,0,0
-0.0276,0.0569,1.0212,-8.2672,-0.6412,0.1603,0,0,0
-0.0254,0.05,1.0227,-7.9847,-2.0611,0.4427,0,0,0
-0.0239,0.0552,1.0381,-6.4885,-3.458,-0.0763,0,0,0
-0.0244,0.0417,1.0483,-3.6489,-3.916,-0.8244,0,0,0
-0.0334,0.0393,1.0488,-1.9618,-3.7863,-1.2443,0,0,0
-0.0417,0.0303,1.042,-0.9847,-3.4351,-0.4046,0,0,0
-0.0479,0.0364,1.0437,-1.6031,-2.687,1.1603,0,0,0
-0.0337,0.0393,1.0442,-3.1527,-1.542,2.8779,0,0,0
-0.0305,0.0457,1.0476,-3.9695,-0.7634,3.9618,0,0,0
-0.0261,0.042,1.0464,-3.1756,-0.2595,4.0458,0,0,0
-0.0251,0.0381,1.0398,-1.6565,-0.9542,3.8779,0,0,0
-0.0276,0.0457,1.0317,-0.0305,-2.7786,2.8168,0,0,0
-0.0269,0.0447,1.0383,0.374,-4.4275,2.0916,0,0,0
-0.0303,0.0361,1.0481,0.1145,-4.5878,2.2901,0,0,0
-0.0222,0.0386,1.0425,-0.4351,-3.1603,3.2595,0,0,0
-0.0112,0.0442,1.0476,-0.1069,-0.9466,3.7786,0,0,0
-0.0098,0.0513,1.0356,-2.1985,1.6794,3.8092,0,0,0
-0.0146,0.0496,1.0308,-2.7176,3.2824,2.8473,0,0,0
-0.0208,0.0488,1.0291,-3.0763,4.2519,2.4122,0,0,0
-0.0322,0.0369,1.0232,-2.4504,3.8092,3.0305,0,0,0
-0.0327,0.0374,1.0183,-3.6412,3.1298,4.2366,0,0,0
-0.0305,0.0374,1.0229,-4.1298,2.4427,5.7023,0,0,0
-0.0168,0.0398,1.0305,-4.3053,1.9466,6.4504,0,0,0
-0.0081,0.0583,1.0356,-4.3817,2.4656,5.6183,0,0,0
0.0012,0.0618,1.033,-3.5267,3.3511,3.0534,0,0,0
-0.0063,0.0493,1.032,-3.5725,4.6565,1.0763,0,0,0
-0.0183,0.0435,1.0315,-3.1679,5.5344,0.3435,0,0,0
-0.0286,0.0403,1.0193,-2.9924,5.2824,0.6183,0,0,0
-0.0427,0.0305,1.0122,-3.3511,3.9466,1.7176,0,0,0
-0.0447,0.0291,1.0127,-3.5115,2.4046,3.2595,0,0,0
-0.0408,0.0322,1.0254,-3.5649,1.5267,4.7786,0,0,0
-0.0291,0.0352,1.0229,-3.5038,0.8244,5.4885,0,0,0
-0.0237,0.0515,1.0259,-2.4046,0.9542,4.8321,0,0,0
-0.0103,0.0527,1.0251,-2.2443,0.7176,3.8244,0,0,0
-0.0127,0.0532,1.0295,-1.8931,0.8473,2.1298,0,0,0
-0.0188,0.0498,1.0242,-1.8244,0.7328,1.1069,0,0,0
-0.0247,0.0525,1.0173,-1.5954,0.1527,0.6107,0,0,0
-0.0327,0.0366,1.0256,-3.0611,0.0153,1.0229,0,0,0
-0.0383,0.0305,1.0254,-3.5878,-0.0382,2.1679,0,0,0
-0.0369,0.0315,1.0259,-4.2137,0.084,3.1985,0,0,0
-0.0305,0.0396,1.0317,-4.5496,-0.1832,3.9695,0,0,0
-0.0251,0.0466,1.0403,-4.1985,-0.1832,3.9084,0,0,0
-0.0186,0.0425,1.0444,-3.6565,0.2901,3.4504,0,0,0
-0.0139,0.0557,1.0427,-2.084,0.2061,2.0458,0,0,0
-0.0132,0.0483,1.0273,-1.3588,0.1908,0.4046,0,0,0
-0.0217,0.0417,1.0295,-1.5725,0.0153,-0.6565,0,0,0
-0.0247,0.0444,1.0154,-1.2977,-1.0,-0.8931,0,0,0
-0.0283,0.0342,1.0242,-1.8321,-1.9847,-0.9466,0,0,0
-0.0295,0.0386,1.0239,-2.9237,-1.8092,-0.8092,0,0,0
-0.0322,0.0376,1.0347,-3.2443,-0.8473,-0.2137,0,0,0
-0.0271,0.0308,1.032,-3.0229,0.5344,0.3893,0,0,0
-0.0273,0.0442,1.0374,-3.0458,1.4275,0.6718,0,0,0
-0.0244,0.0427,1.0312,-3.0916,1.7863,0.3435,0,0,0
-0.0339,0.0388,1.0291,-2.5267,1.0992,0.374,0,0,0
-0.0317,0.0359,1.0342,-2.2214,-0.3511,0.3053,0,0,0
-0.032,0.0366,1.0264,-1.9466,-1.687,-0.2977,0,0,0
-0.032,0.0313,1.0261,-1.1145,-2.9313,-0.6641,0,0,0
-0.0239,0.0408,1.0244,-0.3588,-3.145,-1.0305,0,0,0
-0.0212,0.0342,1.0291,-1.4504,-2.2595,-0.9847,0,0,0
-0.0234,0.0383,1.0442,-2.5573,-0.6947,-0.4656,0,0,0
-0.0337,0.0291,1.0352,-3.7481,0.6031,0.4046,0,0,0
-0.041,0.0291,1.0374,-3.8931,1.1527,1.7786,0,0,0
-0.0386,0.0276,1.0339,-3.145,0.8244,2.6336,0,0,0
-0.0295,0.031,1.0327,-2.0076,0.2061,3.0153,0,0,0
-0.0212,0.04,1.0317,-0.8702,-0.4046,2.5649,0,0,0
-0.0186,0.0483,1.0251,-0.5267,-1.0534,1.3893,0,0,0
-0.0181,0.0471,1.0291,-0.687,-1.3817,-0.2366,0,0,0
-0.0266,0.0295,1.0193,-0.9084,-1.9466,-1.1145,0,0,0
-0.0354,0.0361,1.0264,-1.1756,-2.2519,-1.2443,0,0,0
-0.0413,0.0239,1.0198,-2.3969,-1.4656,-0.0611,0,0,0
-0.0396,0.021,1.0371,-3.6412,-0.1756,1.8473,0,0,0
-0.0325,0.0264,1.0366,-3.9542,1.2061,2.9618,0,0,0
-0.0359,0.0417,1.0325,-3.7786,1.7634,2.9389,0,0,0
-0.033,0.0371,1.0281,-3.6107,1.5954,2.4351,0,0,0
-0.0449,0.0237,1.0232,-2.7328,0.6336,1.8702,0,0,0
-0.0476,0.0298,1.0181,-2.374,-0.855,2.6489,0,0,0
-0.0525,0.0281,1.0278,-3.4885,-1.9237,3.5191,0,0,0
-0.0483,0.0298,1.0386,-3.9466,-1.9924,5.0076,0,0,0
-0.031,0.0334,1.0457,-3.9466,-0.5954,5.626,0,0,0
-0.0217,0.0344,1.041,-2.8855,0.8779,5.5878,0,0,0
-0.0217,0.0349,1.032,-1.9389,2.0305,4.6718,0,0,0
-0.0256,0.0388,1.0254,-1.8168,1.9542,4.0458,0,0,0
-0.0195,0.042,1.0264,-3.0687,1.2672,3.2901,0,0,0
-0.0208,0.0354,1.0229,-4.2824,0.6641,2.8397,0,0,0
-0.0203,0.04,1.0383,-4.0458,-0.1832,2.5878,0,0,0
-0.0239,0.0386,1.0457,-3.6718,0.3817,2.3969,0,0,0
-0.02,0.0396,1.0374,-1.2137,0.6794,1.8092,0,0,0
-0.019,0.0359,1.0437,-0.6183,0.7481,1.5725,0,0,0
-0.0239,0.043,1.0247,-0.855,1.1069,1.1527,0,0,0
-0.0271,0.0371,1.0269,-1.9084,1.2137,0.6336,0,0,0
-0.0313,0.0342,1.0381,-3.6489,1.458,0.7099,0,0,0
-0.0405,0.031,1.0339,-3.8931,1.3206,1.4809,0,0,0
-0.0415,0.0313,1.0388,-3.3053,1.4733,2.3435,0,0,0
-0.0332,0.0369,1.0334,-1.7176,1.1221,2.8244,0,0,0
-0.0212,0.0437,1.0259,-0.458,0.3969,2.5954,0,0,0
-0.0217,0.0481,1.0273,0.1298,0.2977,1.542,0,0,0
-0.031,0.0359,1.0286,-0.1069,0.6107,-0.0458,0,0,0
-0.0381,0.0283,1.0254,-1.2214,1.6107,0.0382,0,0,0
-0.0432,0.0288,1.0142,-2.8015,2.1145,1.3817,0,0,0
-0.0439,0.0266,1.0134,-4.9771,2.1298,2.9466,0,0,0
-0.0432,0.033,1.0161,-5.542,1.7634,3.4962,0,0,0
-0.031,0.0356,1.0259,-4.1374,1.9237,3.1908,0,0,0
-0.0225,0.04,1.0339,-3.5191,1.7176,2.4809,0,0,0
-0.022,0.0471,1.0227,-2.3511,1.3511,1.374,0,0,0
-0.0247,0.031,1.0269,-1.0687,0.8702,0.7252,0,0,0
-0.0327,0.0332,1.0112,-0.5496,-0.7405,-0.0229,0,0,0
-0.0344,0.0308,1.0244,-2.0916,-1.4885,-0.2901,0,0,0
-0.0347,0.0249,1.0254,-3.8855,-1.6641,0.1985,0,0,0
-0.0381,0.0266,1.0203,-3.8397,-2.1145,0.3969,0,0,0
-0.0337,0.0249,1.0344,-3.8015,-1.5496,1.4046,0,0,0
-0.03,0.0386,1.0437,-3.313,-0.6947,1.3511,0,0,0
-0.0271,0.0356,1.0376,-2.6336,0.771,0.7786,0,0,0
-0.0195,0.0425,1.0256,-1.9466,1.4504,0.1221,0,0,0
-0.0254,0.04,1.0374,-2.145,1.2214,-1.0,0,0,0
-0.0293,0.0396,1.0327,-1.8321,0.5038,-1.7176,0,0,0
-0.0244,0.0393,1.0156,-0.916,-0.1374,-2.3588,0,0,0
-0.0342,0.0239,1.0229,-0.6183,-0.9466,-2.7328,0,0,0
-0.0464,0.0266,1.012,-0.1679,-1.5573,-2.0229,0,0,0
-0.042,0.0378,1.0271,-1.1679,-1.3359,-1.1985,0,0,0
-0.0334,0.0288,1.0198,-2.5038,-0.8244,-0.6565,0,0,0
-0.0383,0.0281,1.0183,-4.1221,-0.374,-0.2443,0,0,0
-0.0381,0.0347,1.0176,-4.4504,0.0992,-0.4962,0,0,0
-0.0342,0.03,1.0281,-4.7557,0.3053,-0.9847,0,0,0
-0.0369,0.0208,1.0461,-5.2519,0.7786,-1.0076,0,0,0
-0.0454,0.0166,1.0488,-3.2901,0.4504,-0.2595,0,0,0
-0.04,0.0212,1.0422,-2.0992,-0.1221,-0.0305,0,0,0
-0.0332,0.0281,1.0342,-0.7863,-1.1832,-0.4733,0,0,0
-0.0308,0.0288,1.0327,-0.8931,-1.9008,-1.374,0,0,0
-0.0403,0.0281,1.0498,-1.7023,-1.1756,-1.6794,0,0,0
-0.0374,0.0256,1.0459,-1.771,-0.2748,-1.6489,0,0,0
-0.0422,0.0125,1.0549,-1.7863,0.5344,-1.4351,0,0,0
-0.0488,0.0168,1.0393,-1.1908,0.3817,-1.458,0,0,0
-0.0452,0.0227,1.0259,0.4885,-0.2748,-1.3511,0,0,0
-0.0337,0.0271,1.0195,1.313,-0.6641,-0.7405,0,0,0
-0.0405,0.0212,1.0237,0.8931,-1.0076,-0.7405,0,0,0
-0.042,0.0278,1.0129,-0.2519,-0.9008,-0.0382,0,0,0
-0.0403,0.0249,1.0337,-1.4275,-0.6183,0.4198,0,0,0
-0.0378,0.03,1.0288,-2.5878,0.6412,0.9771,0,0,0
-0.0251,0.0325,1.0173,-2.145,0.7481,0.7557,0,0,0
-0.0305,0.0339,1.0142,-1.6107,0.5649,-0.7634,0,0,0
-0.0391,0.0276,1.0149,-1.9771,-0.1374,-1.1679,0,0,0
-0.0427,0.0251,1.0317,-2.8473,-1.145,-0.7252,0,0,0
-0.0432,0.0229,1.0322,-2.7786,-1.6641,-0.2366,0,0,0
-0.0361,0.0256,1.0344,-1.5496,-1.6031,0.2443,0,0,0
-0.033,0.0303,1.0449,-1.3511,-0.0534,-0.229,0,0,0
-0.0376,0.0344,1.0393,-1.7786,1.1145,-1.145,0,0,0
-0.0479,0.0298,1.0261,-1.9542,1.6183,-1.3053,0,0,0
-0.0535,0.012,1.0227,-2.0458,1.3359,-0.2672,0,0,0
-0.0601,0.0188,1.0208,-3.1298,-0.3206,1.5191,0,0,0
-0.054,0.0193,1.0273,-3.3664,-1.6031,2.8931,0,0,0
-0.0444,0.0278,1.0417,-2.8855,-2.6031,3.7939,0,0,0
-0.0269,0.0386,1.043,-0.9618,-2.4656,3.084,0,0,0
-0.0166,0.0425,1.0427,0.9313,-2.0305,1.3206,0,0,0
-0.0154,0.0437,1.0293,1.5954,-1.3817,-0.2977,0,0,0
-0.031,0.0388,1.0295,1.1832,-0.916,-1.9313,0,0,0
-0.0332,0.033,1.0264,0.5496,-0.6336,-1.7786,0,0,0
-0.0398,0.0234,1.019,-0.4962,-0.8473,-0.7786,0,0,0
-0.0354,0.0234,1.0264,-2.0,-0.4122,0.6794,0,0,0
-0.0359,0.0315,1.0425,-3.1985,0.5267,2.1221,0,0,0
-0.0281,0.0364,1.0312,-2.7481,1.5649,1.7863,0,0,0
-0.0251,0.0413,1.0371,-2.4733,2.4046,0.2748,0,0,0
-0.0298,0.0364,1.0261,-1.9313,2.3053,-0.8779,0,0,0
-0.0339,0.0286,1.0286,-1.2977,1.7328,-1.7176,0,0,0
-0.0439,0.0291,1.0188,-1.6794,-0.4427,-1.5954,0,0,0
-0.0481,0.02,1.0308,-1.6412,-1.8626,-0.8168,0,0,0
-0.0488,0.0188,1.0352,-0.8855,-2.1985,0.2672,0,0,0
-0.0435,0.0251,1.0374,-0.626,-1.7557,1.0076,0,0,0
-0.0398,0.0247,1.0281,-0.3817,-1.1221,1.8092,0,0,0
-0.0334,0.0327,1.0271,-0.8015,-0.3817,1.4962,0,0,0
-0.032,0.0352,1.0369,-1.687,0.1832,0.8015,0,0,0
-0.0254,0.0376,1.0381,-1.5115,0.6107,-0.3817,0,0,0
-0.0305,0.0371,1.0308,-1.229,1.0992,-1.0153,0,0,0
-0.0391,0.0344,1.0286,-0.2519,0.2214,-1.5038,0,0,0
-0.0464,0.021,1.0315,-0.145,-0.0382,-1.3359,0,0,0
-0.0593,0.0168,1.0203,0.1985,-0.0305,0.0229,0,0,0
-0.0525,0.0203,1.0195,-0.0611,0.6565,2.0534,0,0,0
-0.0466,0.0237,1.0139,-2.1221,0.9695,3.3664,0,0,0
-0.0308,0.0374,1.0081,-3.3359,0.145,4.0153,0,0,0
-0.0203,0.0464,1.0198,-4.6718,-0.3969,2.2443,0,0,0
-0.0212,0.0466,1.0337,-3.7863,-0.8015,-0.4122,0,0,0
-0.0212,0.0371,1.0444,-2.1985,-0.916,-2.5267,0,0,0
-0.0291,0.0361,1.0469,-0.9008,-0.2748,-3.6412,0,0,0
-0.0457,0.0198,1.0305,1.3664,0.3969,-2.7557,0,0,0
-0.0488,0.0264,1.0137,1.2137,0.5573,-0.8931,0,0,0
-0.043,0.0295,1.0085,-1.6183,0.3435,0.8702,0,0,0
-0.0388,0.0403,1.0137,-3.9618,0.2672,1.6718,0,0,0
-0.0349,0.0386,1.0349,-5.2977,0.5038,0.9008,0,0,0
-0.0295,0.0381,1.0374,-3.7405,0.1221,-0.8702,0,0,0
-0.0322,0.0327,1.0374,-1.542,0.1221,-2.1908,0,0,0
-0.0381,0.0361,1.0183,0.7023,-0.4351,-2.6641,0,0,0
-0.0447,0.022,1.0176,1.1832,-1.0305,-1.9313,0,0,0
-0.0454,0.0276,1.0164,-0.8015,-1.1145,-0.542,0,0,0
-0.0447,0.0259,1.021,-4.2137,-1.1832,0.9313,0,0,0
-0.0378,0.0317,1.043,-5.8397,-0.771,2.0305,0,0,0
-0.0305,0.031,1.0464,-4.9695,-0.2748,1.458,0,0,0
-0.0273,0.0315,1.0505,-2.5954,-0.4198,-0.0687,0,0,0
-0.0276,0.0359,1.0359,-1.084,0.1221,-2.0305,0,0,0
-0.0359,0.0354,1.0317,0.4046,-0.9618,-3.2977,0,0,0
-0.0413,0.0383,1.0298,0.3359,-1.9084,-3.9924,0,0,0
-0.0486,0.0305,1.0312,-0.5649,-2.6107,-3.7405,0,0,0
-0.0535,0.0227,1.0352,-2.4351,-1.9924,-2.3664,0,0,0
-0.0571,0.0247,1.0405,-2.916,-0.9847,-0.7023,0,0,0
-0.0425,0.0276,1.0493,-2.8015,0.5649,0.4046,0,0,0
-0.0378,0.0337,1.0471,-1.7405,1.5649,0.3282,0,0,0
-0.0422,0.0332,1.0442,-0.9466,1.4962,-0.1603,0,0,0
-0.0378,0.0325,1.0293,-0.4122,0.145,-0.9466,0,0,0
-0.043,0.0259,1.0156,0.0763,-0.9847,-1.4427,0,0,0
-0.0466,0.0283,1.0112,0.3893,-3.5344,-1.5878,0,0,0
-0.0403,0.0305,1.022,-0.4046,-4.0687,-1.0305,0,0,0
-0.0354,0.0217,1.0369,-0.2595,-3.0458,-0.313,0,0,0
-0.0288,0.0276,1.0408,-0.3359,-1.1679,0.5878,0,0,0
-0.0217,0.0305,1.0417,-1.2443,1.4427,0.3817,0,0,0
-0.0337,0.0315,1.0291,-1.4656,3.1832,0.1374,0,0,0
-0.0315,0.0356,1.031,-2.0076,3.2443,-0.1832,0,0,0
-0.0337,0.0352,1.0203,-2.6336,2.4733,-0.6947,0,0,0
-0.0417,0.0364,1.0122,-1.4122,0.2061,-1.2366,0,0,0
-0.0356,0.0339,1.02,-0.5115,-2.0153,-2.1069,0,0,0
-0.0376,0.0369,1.0356,0.145,-2.8702,-2.9618,0,0,0
-0.0381,0.0408,1.033,0.8168,-3.0687,-3.771,0,0,0
-0.042,0.0413,1.0315,1.0763,-2.3817,-4.1756,0,0,0
-0.0444,0.0425,1.019,0.6947,-2.4504,-4.8168,0,0,0
-0.0339,0.0518,1.0227,0.3435,-3.6718,-6.5115,0,0,0
-0.0242,0.0623,1.0293,-0.0458,-4.8931,-9.8244,0,0,0
-0.0144,0.0715,1.0391,1.4962,-6.6794,-14.0916,0,0,0
0.0132,0.0781,1.0151,5.0,-10.6794,-19.4198,0,0,0
0.04,0.127,1.0288,8.7939,-15.4275,-28.0763,0,0,0
0.0803,0.1375,1.0239,13.855,-21.6794,-39.626,0,0,0
0.1187,0.1653,1.0505,18.7557,-26.5114,-55.7557,0,0,0
0.0933,0.1086,1.0681,23.7557,-27.771,-68.229,0,0,0
0.0525,0.113,1.0474,26.7405,-30.1221,-76.4809,0,0,0
0.0361,0.0979,1.0417,27.0229,-30.4885,-81.6412,0,0,0
0.0298,0.1042,1.0444,24.3359,-29.771,-81.9771,0,0,0
0.0308,0.0928,1.0391,20.9313,-25.2366,-79.5954,0,0,0
0.0286,0.0945,1.0388,17.6183,-19.458,-76.4733,0,0,0
0.0322,0.1167,1.0188,13.7252,-12.771,-75.0153,0,0,0
0.0537,0.1294,0.9988,9.6947,-7.8779,-76.9618,0,0,0
0.0452,0.0859,1.0259,2.5115,-3.2901,-79.0,0,0,0
-0.0095,0.0376,1.0198,-2.145,0.5878,-77.3664,0,0,0
-0.0215,0.0569,1.012,-3.3817,1.6336,-74.4657,0,0,0
-0.0227,0.0574,1.0247,-6.229,2.4275,-70.4275,0,0,0
-0.0005,0.0698,1.0422,-10.3664,4.6031,-65.7939,0,0,0
0.0098,0.0764,1.0508,-12.084,7.1832,-62.1374,0,0,0
0.0105,0.0898,1.0625,-12.1527,10.687,-60.0382,0,0,0
0.0151,0.0942,1.0698,-12.2901,13.6718,-60.542,0,0,0
0.0217,0.1001,1.0586,-10.7405,15.916,-63.2519,0,0,0
0.009,0.0945,1.0486,-7.9466,17.6718,-66.4275,0,0,0
-0.0098,0.0779,1.0388,-5.2366,18.9542,-68.2672,0,0,0
-0.05,0.0496,1.0371,-4.4733,20.2672,-67.8321,0,0,0
-0.0771,0.0342,1.0271,-4.2061,20.3206,-64.0916,0,0,0
-0.1023,0.0237,1.0144,-4.9237,19.1069,-58.0382,0,0,0
-0.1118,0.0237,1.0022,-5.5038,16.6107,-51.542,0,0,0
-0.103,0.0276,1.0056,-8.2672,12.6031,-44.7481,0,0,0
-0.0996,0.0251,1.0198,-10.9771,9.2595,-38.7634,0,0,0
-0.0933,0.0171,1.042,-11.2748,6.8855,-34.7252,0,0,0
-0.0898,0.0227,1.0576,-10.1908,5.8702,-31.0992,0,0,0
-0.0791,0.0186,1.0701,-7.6718,6.3053,-28.8931,0,0,0
-0.0676,0.0232,1.0728,-4.6183,7.3053,-27.2672,0,0,0
-0.0632,0.031,1.0649,-0.7939,7.4885,-26.7786,0,0,0
-0.0461,0.0383,1.043,1.6641,7.0992,-26.7634,0,0,0
-0.0369,0.0398,1.0256,3.3359,5.9237,-27.5802,0,0,0
-0.0417,0.042,1.0142,5.3588,3.5573,-28.771,0,0,0
-0.0325,0.0483,1.0176,5.2748,2.0916,-29.9237,0,0,0
-0.0288,0.0508,1.0112,4.0611,0.9237,-31.0687,0,0,0
-0.022,0.053,1.0117,4.5954,0.4198,-32.5344,0,0,0
-0.01,0.0554,1.0247,4.9542,1.2824,-35.1221,0,0,0
-0.0176,0.0623,1.0208,4.4351,1.3206,-38.3511,0,0,0
-0.0269,0.0471,1.0112,4.6641,2.6489,-39.916,0,0,0
-0.043,0.0444,1.0212,4.5573,4.0076,-39.9313,0,0,0
-0.0552,0.0398,1.0134,3.4504,5.3053,-38.6794,0,0,0
-0.0645,0.0349,0.9985,1.8397,5.7786,-36.3817,0,0,0
-0.075,0.0298,0.9976,-0.3206,5.9466,-34.2672,0,0,0
-0.0762,0.0288,1.0125,-3.4198,6.6565,-31.4809,0,0,0
-0.0879,0.0215,1.0107,-6.3893,8.7634,-28.4122,0,0,0
-0.1013,0.0164,1.0137,-8.3817,11.0992,-24.6336,0,0,0
-0.1111,0.0171,1.0259,-10.3206,13.0076,-20.4656,0,0,0
-0.1086,0.0105,1.012,-10.7634,14.0076,-17.1756,0,0,0
-0.1072,0.0127,0.9993,-11.3359,12.3206,-14.7099,0,0,0
-0.1099,0.0129,0.9998,-10.4504,9.313,-13.4427,0,0,0
-0.1084,0.0044,1.0127,-8.1221,5.8855,-12.6718,0,0,0
-0.1145,0.0085,1.0159,-4.0458,2.8702,-11.7481,0,0,0
-0.1091,0.0039,1.0098,-1.9237,0.6031,-11.0,0,0,0
-0.1172,0.012,1.0176,-1.1374,-1.6641,-9.7176,0,0,0
-0.1177,0.0178,1.0186,-1.8244,-1.8321,-8.084,0,0,0
-0.1106,0.0156,1.0371,-2.374,-0.3435,-6.1756,0,0,0
-0.1086,0.0051,1.0276,-3.229,1.6794,-2.7634,0,0,0
-0.0991,0.0215,1.0103,-4.3359,1.0763,-0.2519,0,0,0
-0.1016,0.0349,0.9907,-4.2672,-0.9618,-0.145,0,0,0
-0.0938,0.0313,1.0061,-3.1679,-2.8015,-1.0229,0,0,0
-0.082,0.0422,1.0198,-2.4275,-4.1832,-1.9924,0,0,0
-0.0774,0.0344,1.0344,-0.6947,-4.6489,-2.687,0,0,0
-0.0774,0.0361,1.0273,-0.6718,-3.9924,-2.9542,0,0,0
-0.0732,0.0488,1.02,-1.2901,-3.9771,-3.3817,0,0,0
-0.0776,0.042,1.0283,-2.2595,-4.0382,-3.3511,0,0,0
-0.0872,0.0386,1.0295,-2.6565,-4.1527,-3.4885,0,0,0
-0.0916,0.0359,1.0405,-2.6565,-3.0534,-3.1832,0,0,0
-0.0845,0.0408,1.0388,-3.1145,-1.5267,-2.0305,0,0,0
-0.0891,0.0352,1.0383,-4.0153,0.0687,-1.3206,0,0,0
-0.0842,0.0491,1.0312,-4.5802,1.2901,-0.6489,0,0,0
-0.0798,0.0537,1.0244,-4.7939,1.2748,-1.6641,0,0,0
-0.075,0.0547,1.0237,-4.458,-0.145,-2.8855,0,0,0
-0.0784,0.0544,1.0266,-3.8321,-2.3511,-3.916,0,0,0
-0.0854,0.0493,1.0303,-2.7405,-4.2901,-4.3053,0,0,0
-0.0823,0.0466,1.0496,-1.9466,-5.0992,-4.313,0,0,0
-0.0952,0.0369,1.0508,-0.9389,-4.6412,-3.6718,0,0,0
-0.0872,0.0403,1.0483,0.0458,-2.7176,-2.7786,0,0,0
-0.0864,0.0415,1.0344,0.1985,-1.4427,-1.7481,0,0,0
-0.0789,0.0491,1.0369,-1.1145,0.0916,-1.1527,0,0,0
-0.0718,0.0544,1.0229,-1.8779,0.7176,-1.7557,0,0,0
-0.0713,0.0559,1.0225,-1.8702,0.5725,-3.5191,0,0,0
-0.051,0.0593,1.0083,-2.8779,1.6107,-6.8244,0,0,0
-0.0798,0.0613,1.033,-1.229,-0.7023,-6.1298,0,0,0
-0.0801,0.0413,1.0234,-2.7405,-1.2137,-5.4885,0,0,0
-0.0928,0.0417,1.042,-3.7786,-1.2214,-3.4351,0,0,0
-0.1023,0.0315,1.0378,-3.4427,-1.5649,-1.3664,0,0,0
-0.0894,0.0369,1.0334,-1.313,-2.0305,0.0916,0,0,0
-0.0786,0.0474,1.0298,-0.4351,-2.3053,-0.4733,0,0,0
-0.0696,0.0454,1.0247,0.1374,-1.687,-1.6412,0,0,0
-0.0645,0.0493,1.0276,-0.9618,-2.2061,-3.0,0,0,0
-0.0684,0.0493,1.0237,-2.8092,-1.7634,-4.0305,0,0,0
-0.0754,0.0505,1.0332,-4.1221,-1.5115,-4.7405,0,0,0
-0.0757,0.04,1.0359,-3.9008,-0.6107,-5.0458,0,0,0
-0.0803,0.0317,1.0352,-3.1069,0.2901,-4.5649,0,0,0
-0.0869,0.0303,1.0254,-1.8779,0.3969,-3.4885,0,0,0
-0.0837,0.0391,1.0183,-1.5573,-0.084,-3.3435,0,0,0
-0.0793,0.0398,1.0176,-1.8015,-0.6794,-4.0992,0,0,0
-0.074,0.0447,1.0203,-1.4962,-1.1832,-5.1145,0,0,0
-0.0718,0.0415,1.0237,-1.3282,-0.5954,-5.7099,0,0,0
-0.0791,0.0396,1.0156,-2.0153,0.2824,-5.7176,0,0,0
-0.0872,0.0422,1.0139,-3.3206,0.1679,-5.5878,0,0,0
-0.092,0.0344,1.0054,-4.3053,-0.7786,-4.3969,0,0,0
-0.094,0.0283,1.0134,-4.1908,-2.145,-3.1908,0,0,0
-0.0879,0.0261,1.0176,-3.3435,-2.9084,-2.3893,0,0,0
-0.0818,0.0337,1.0308,-4.0687,-2.9313,-1.7939,0,0,0
-0.0691,0.0364,1.0254,-4.6031,-1.9313,-1.9847,0,0,0
-0.073,0.0322,1.0344,-4.0611,-1.542,-2.6183,0,0,0
-0.0649,0.0415,1.0339,-3.7557,-1.2595,-3.9466,0,0,0
-0.0662,0.0359,1.0332,-3.0992,-0.5878,-4.7328,0,0,0
-0.0686,0.0334,1.0217,-2.7481,-1.0382,-5.5954,0,0,0
-0.0703,0.0366,1.0271,-2.8702,-1.2519,-6.5496,0,0,0
-0.0679,0.0415,1.022,-2.9542,-1.4046,-7.2061,0,0,0
-0.0679,0.0386,1.0281,-3.2901,-1.687,-7.6565,0,0,0
-0.0725,0.0452,1.0186,-3.7405,-2.3206,-7.6947,0,0,0
-0.073,0.0352,1.031,-4.1221,-2.6412,-7.4504,0,0,0
-0.0806,0.0405,1.0288,-3.4809,-2.6412,-7.4427,0,0,0
-0.0776,0.0347,1.0364,-3.2901,-2.0382,-7.6412,0,0,0
-0.0767,0.0295,1.0396,-4.1756,-0.3664,-7.6107,0,0,0
-0.0786,0.033,1.03,-5.3359,1.2977,-7.6031,0,0,0
-0.074,0.0269,1.0334,-6.1374,1.9389,-7.7481,0,0,0
-0.0813,0.0317,1.0227,-7.0611,1.2672,-7.8092,0,0,0
-0.0891,0.0281,1.0225,-6.4809,-0.2748,-8.0382,0,0,0
-0.0835,0.0334,1.0325,-5.6641,-1.3817,-8.6947,0,0,0
-0.0828,0.0254,1.0264,-4.3053,-2.5115,-9.0382,0,0,0
-0.0823,0.0313,1.0266,-3.9771,-2.7023,-9.2061,0,0,0
-0.0776,0.0283,1.0383,-3.9389,-2.3817,-9.2443,0,0,0
-0.0779,0.0266,1.0415,-3.2748,-1.1756,-9.855,0,0,0
-0.0791,0.0305,1.0349,-2.8321,-0.0382,-9.9466,0,0,0
-0.0764,0.0342,1.0227,-2.4885,-0.2519,-10.1908,0,0,0
-0.0686,0.0381,1.0222,-2.4351,-1.0763,-10.542,0,0,0
-0.0566,0.0417,1.0164,-3.0611,-1.8779,-12.3435,0,0,0
-0.0476,0.0515,1.0144,-3.8855,-1.1832,-14.9008,0,0,0
-0.0415,0.0549,1.0193,-4.7939,-0.5191,-17.6489,0,0,0
-0.0469,0.0483,1.0337,-6.4351,0.626,-20.0611,0,0,0
-0.0486,0.0459,1.0342,-7.458,1.3817,-22.0916,0,0,0
-0.0476,0.0513,1.0298,-7.0305,1.084,-24.0,0,0,0
-0.0381,0.0447,1.0452,-6.0611,0.542,-27.0076,0,0,0
-0.0278,0.0557,1.0449,-4.2901,0.7176,-31.5344,0,0,0
-0.0237,0.0662,1.0508,-1.6565,0.9695,-37.4809,0,0,0
-0.0166,0.0664,1.0405,-0.7023,2.1985,-44.0305,0,0,0
-0.0256,0.0635,1.0474,-1.4046,5.1603,-49.6031,0,0,0
-0.0417,0.0515,1.0371,-2.6031,7.2519,-54.2748,0,0,0
-0.0447,0.05,1.0271,-3.5954,8.9542,-58.2672,0,0,0
-0.0493,0.0361,1.0244,-4.3282,9.1298,-62.2824,0,0,0
-0.0574,0.0308,1.0188,-3.3053,8.5115,-65.9313,0,0,0
-0.0801,0.0173,1.0154,-1.9313,7.1756,-69.2443,0,0,0
-0.0784,0.0137,0.9792,-0.7786,4.916,-71.9084,0,0,0
-0.0784,0.0137,0.9802,-2.1756,2.313,-74.5191,0,0,0
-0.0935,0.0071,0.9863,-5.4198,1.6489,-76.3053,0,0,0
-0.1199,-0.0081,1.0078,-8.3206,2.1908,-76.4886,0,0,0
-0.1514,-0.0396,1.0193,-9.6336,4.0305,-72.4198,0,0,0
-0.1633,-0.0547,1.0181,-9.6489,4.9695,-66.2748,0,0,0
-0.1548,-0.053,0.9971,-8.8779,3.1985,-59.7939,0,0,0
-0.1455,-0.0627,0.9976,-8.626,-0.229,-54.6794,0,0,0
-0.1389,-0.0571,0.9934,-6.9924,-4.3511,-51.6031,0,0,0
-0.1416,-0.0615,1.0029,-4.687,-7.8702,-49.2901,0,0,0
-0.1384,-0.0542,1.0156,-3.0687,-10.9924,-46.3511,0,0,0
-0.135,-0.053,1.0437,-3.4809,-11.9924,-43.5038,0,0,0
-0.1228,-0.054,1.0437,-4.1756,-11.2137,-39.1527,0,0,0
-0.1106,-0.0535,1.0554,-3.4504,-9.1527,-34.0305,0,0,0
-0.1064,-0.0569,1.0542,-1.7786,-6.5725,-28.6107,0,0,0
-0.1072,-0.053,1.0479,0.7328,-5.5878,-23.9237,0,0,0
-0.092,-0.0403,1.011,2.3206,-6.374,-21.1985,0,0,0
-0.0811,-0.0271,0.9819,1.8397,-8.7786,-19.771,0,0,0
-0.0664,-0.0186,0.9902,-1.5573,-11.5115,-19.2595,0,0,0
-0.0557,-0.0173,1.0132,-5.4046,-12.7786,-19.229,0,0,0
-0.0427,-0.0186,1.0264,-7.2061,-11.6565,-20.0382,0,0,0
-0.0425,-0.0242,1.0422,-8.0687,-9.3435,-20.4656,0,0,0
-0.0542,-0.0356,1.0601,-6.916,-5.916,-19.8321,0,0,0
-0.0667,-0.0378,1.0601,-5.5573,-2.9008,-17.4809,0,0,0
-0.0735,-0.0454,1.0566,-4.0,-1.0305,-14.2672,0,0,0
-0.0659,-0.0432,1.0371,-2.1603,-0.0992,-11.6718,0,0,0
-0.0579,-0.0388,1.0117,-0.0687,-1.6489,-10.8702,0,0,0
-0.0535,-0.0273,0.9961,0.2901,-4.5267,-11.3511,0,0,0
-0.0598,-0.0322,0.9761,-0.8321,-8.3969,-12.313,0,0,0
-0.0728,-0.0332,1.0068,-3.5496,-11.4351,-12.0611,0,0,0
-0.0886,-0.0532,1.0156,-5.8244,-12.4122,-8.6947,0,0,0
-0.0854,-0.063,1.0154,-4.1832,-13.4427,-3.2443,0,0,0
-0.072,-0.0483,1.0156,-2.1832,-14.9695,1.3511,0,0,0
-0.0461,-0.0327,1.0242,-1.8626,-14.8092,3.7863,0,0,0
-0.0337,-0.0259,1.0403,-2.687,-12.7481,4.2443,0,0,0
-0.0181,-0.0222,1.0635,-3.9618,-8.4046,3.3664,0,0,0
-0.0212,-0.0334,1.0544,-4.3053,-5.2519,3.1298,0,0,0
-0.0281,-0.0344,1.0518,-3.5344,-1.3053,3.2137,0,0,0
-0.0261,-0.0283,1.0376,-1.9771,1.7481,3.2061,0,0,0
-0.0388,-0.0295,1.0371,-1.7786,3.8626,3.6565,0,0,0
-0.0493,-0.0134,1.0344,-1.9618,5.3359,3.4885,0,0,0
-0.0422,-0.0359,1.0144,-1.0458,2.313,3.5496,0,0,0
-0.0476,-0.0291,1.0273,0.2748,-0.8397,3.6794,0,0,0
-0.0542,-0.0217,1.0544,-0.8244,-4.5878,2.8931,0,0,0
-0.0583,-0.0386,1.0637,1.3588,-6.8626,2.1069,0,0,0
-0.051,-0.0469,1.0918,5.5649,-5.6107,2.1374,0,0,0
-0.0532,-0.0435,1.0667,10.5649,-3.5496,2.7023,0,0,0
-0.0452,-0.0186,1.0688,8.5344,-0.0076,2.9008,0,0,0
-0.0332,-0.0122,1.0447,5.0458,1.3511,2.4504,0,0,0
-0.0271,-0.001,1.0273,1.9084,0.3969,1.1679,0,0,0
-0.0325,-0.0022,1.0356,0.4046,-1.3511,-0.4122,0,0,0
-0.0427,-0.01,1.0596,-0.4809,-1.542,-1.5496,0,0,0
-0.0447,-0.0093,1.063,-1.4962,0.6718,-1.9618,0,0,0
-0.053,-0.0103,1.061,-1.1374,2.2824,-1.4351,0,0,0
-0.051,-0.0146,1.0466,-2.0382,3.4656,-0.6489,0,0,0
-0.0574,-0.0139,1.0432,-1.9466,3.4962,-0.4275,0,0,0
-0.0549,-0.0161,1.0261,-1.5115,2.9466,-1.0916,0,0,0
-0.0486,-0.0085,1.0242,-0.5878,2.6183,-1.374,0,0,0
-0.0503,-0.0071,1.0383,-0.2824,2.3053,-1.5573,0,0,0
-0.0544,-0.0129,1.0398,0.1374,2.7099,-1.2824,0,0,0
-0.0552,-0.0166,1.04,0.4351,4.2137,-0.5115,0,0,0
-0.0632,-0.0115,1.0391,0.0076,5.7252,0.374,0,0,0
-0.0598,-0.0125,1.0234,-1.3817,6.229,1.6565,0,0,0
-0.0576,-0.0068,1.0144,-1.3817,5.5267,2.3969,0,0,0
-0.0483,0.0005,1.0059,-1.8321,3.7252,1.6565,0,0,0
-0.0432,0.0044,1.0034,-2.458,1.7786,-0.0076,0,0,0
-0.0425,0.0022,1.022,-2.5267,0.4885,-1.3359,0,0,0
-0.0535,-0.0037,1.0356,-2.4809,1.2672,-2.3206,0,0,0
-0.0593,-0.0205,1.0488,-2.0382,3.0763,-1.3206,0,0,0
-0.0642,-0.0149,1.0352,-0.3206,5.5802,-0.1756,0,0,0
-0.0693,-0.0198,1.0195,0.5573,7.0611,0.771,0,0,0
-0.0684,-0.0085,1.0085,0.0,7.7099,1.5954,0,0,0
-0.0664,-0.0083,0.9971,-2.374,7.0763,1.1145,0,0,0
-0.0686,-0.012,1.0125,-4.5191,6.4809,0.9084,0,0,0
-0.0688,-0.0142,0.9883,-5.3511,4.1679,1.084,0,0,0
-0.0806,-0.0103,0.9905,-5.1298,0.6489,0.8855,0,0,0
-0.082,-0.0073,1.0083,-4.8092,-1.3359,0.8244,0,0,0
-0.0808,-0.021,1.0249,-4.687,-1.5802,1.1756,0,0,0
-0.0698,-0.0173,1.0237,-4.1298,-1.8855,2.3588,0,0,0
-0.0613,-0.0178,1.0276,-3.6412,-2.5573,3.1374,0,0,0
-0.0557,-0.0132,1.0376,-2.084,-3.6565,2.2137,0,0,0
-0.0483,-0.0107,1.0437,-0.2672,-3.7252,0.3817,0,0,0
-0.0476,-0.0139,1.0515,1.2214,-1.6794,-1.4962,0,0,0
-0.0488,-0.0076,1.0513,0.2672,1.7557,-1.9924,0,0,0
-0.0486,-0.0098,1.032,-1.458,3.5954,-1.6794,0,0,0
-0.062,-0.0144,1.0088,-2.4504,3.3893,-1.3359,0,0,0
-0.0747,-0.0085,1.0178,-3.4351,1.8626,-1.9542,0,0,0
-0.0752,-0.0144,1.021,-3.2061,0.8397,-2.4504,0,0,0
-0.0825,-0.0212,1.0332,-3.0229,-0.1145,-1.313,0,0,0
-0.0764,-0.0232,1.0347,-3.2748,-0.2748,0.7023,0,0,0
-0.075,-0.0168,1.0366,-3.1374,-0.084,2.0305,0,0,0
-0.0671,-0.0181,1.0281,-1.6489,0.4198,1.7863,0,0,0
-0.0586,-0.0212,1.0327,-1.0305,1.1374,0.4351,0,0,0
-0.0491,-0.0083,1.021,-1.4275,1.2977,-1.3435,0,0,0
-0.0576,-0.0049,1.0164,-2.0382,2.0458,-3.4809,0,0,0
-0.0657,-0.019,1.0269,-3.8168,3.2977,-4.5496,0,0,0
-0.0754,-0.0215,1.0222,-5.2366,4.1985,-2.6718,0,0,0
-0.0784,-0.0247,1.0305,-6.4809,3.4504,-0.1527,0,0,0
-0.082,-0.0269,1.0308,-5.8702,2.5038,1.9695,0,0,0
-0.0754,-0.0251,1.0247,-3.0611,0.4809,1.7023,0,0,0
-0.0698,-0.0151,1.0259,-0.4427,-1.458,1.1069,0,0,0
-0.0679,-0.0164,1.0383,0.5038,-2.1221,0.1145,0,0,0
-0.0649,-0.0188,1.04,-0.2672,-0.8321,-0.4122,0,0,0
-0.071,-0.0212,1.0396,-0.0916,0.5725,-0.4275,0,0,0
-0.0798,-0.0251,1.03,1.1832,0.916,-0.3588,0,0,0
-0.0828,-0.0227,1.0249,1.6641,0.3817,0.2595,0,0,0
-0.0867,-0.0215,1.0168,1.4809,-1.9618,1.1145,0,0,0
-0.0847,-0.0208,1.0151,1.313,-4.1603,1.7481,0,0,0
-0.0645,-0.0093,1.0063,1.3511,-5.2443,1.1679,0,0,0
-0.0613,-0.0103,1.0117,0.9695,-5.8168,-0.0305,0,0,0
-0.0601,-0.0115,1.0237,-0.6183,-4.4427,-0.8779,0,0,0
-0.0667,-0.0071,1.0408,-0.9618,-2.1832,-1.1908,0,0,0
-0.0637,-0.0085,1.033,-1.7405,0.1756,-0.7863,0,0,0
-0.0693,-0.0083,1.0281,-3.0153,2.1603,-0.145,0,0,0
-0.0708,-0.0127,1.0239,-3.313,2.5878,0.1985,0,0,0
-0.0706,-0.01,1.0134,-3.5802,2.2137,0.084,0,0,0
-0.0713,-0.0088,1.0142,-3.626,0.5802,-0.3588,0,0,0
-0.0642,-0.0142,1.0146,-4.4275,-2.0,-0.6107,0,0,0
-0.063,-0.0176,1.0193,-4.7634,-3.8244,-0.7328,0,0,0
-0.0618,-0.0181,1.0312,-4.0687,-4.1221,-1.0992,0,0,0
-0.0676,-0.02,1.04,-3.1756,-2.8168,-1.6107,0,0,0
-0.064,-0.0249,1.0522,-2.2366,-0.8397,-1.4275,0,0,0
-0.0664,-0.0229,1.0391,-1.3817,0.4046,-1.1908,0,0,0
-0.0684,-0.02,1.0283,-1.5878,1.5802,-1.7939,0,0,0
-0.0723,-0.0193,1.0181,-2.6641,0.8473,-1.7023,0,0,0
-0.0781,-0.0251,1.0176,-3.5496,-0.6031,-1.4275,0,0,0
-0.0769,-0.019,1.0195,-3.9008,-2.4809,-0.7863,0,0,0
-0.0762,-0.0203,1.041,-4.1832,-2.5954,-0.5954,0,0,0
-0.0767,-0.0281,1.053,-3.4351,-1.5191,0.0076,0,0,0
-0.0645,-0.0281,1.0471,-1.2595,-0.8626,1.2901,0,0,0
-0.0632,-0.019,1.0364,0.8397,-1.0763,0.7786,0,0,0
-0.0554,-0.0151,1.0251,2.0687,-1.145,-0.2595,0,0,0
-0.05,-0.0093,1.031,1.8397,-1.145,-1.6947,0,0,0
-0.0547,-0.012,1.0356,-0.1679,-0.1756,-2.5344,0,0,0
-0.0645,-0.012,1.0317,-1.374,2.1298,-2.687,0,0,0
-0.0703,-0.0129,1.0264,-2.4809,4.3053,-1.5344,0,0,0
-0.073,-0.0166,0.9988,-3.7939,4.3282,0.1756,0,0,0
-0.0715,-0.0149,1.0042,-5.0,1.5573,1.4733,0,0,0
-0.0657,-0.0164,1.0215,-5.5115,-1.1985,1.2061,0,0,0
-0.0591,-0.0049,1.0408,-4.2901,-2.6412,-0.5573,0,0,0
-0.0574,-0.0237,1.0544,-2.374,-1.4427,-2.2366,0,0,0
-0.0596,-0.0256,1.0488,-0.7099,0.8702,-2.8321,0,0,0
-0.0605,-0.02,1.0415,0.0,3.626,-3.0,0,0,0
-0.0701,-0.0222,1.0303,-1.1908,6.0534,-2.9389,0,0,0
-0.0796,-0.0205,0.991,-4.4046,5.1221,-1.5038,0,0,0
-0.0806,-0.0247,0.9944,-6.2061,1.4427,-0.8626,0,0,0
-0.0852,-0.0173,1.0164,-5.9008,-1.9313,-2.0229,0,0,0
-0.0845,-0.0283,1.0425,-3.8626,-3.1832,-2.9008,0,0,0
-0.0854,-0.033,1.0488,-2.458,-1.9084,-2.1374,0,0,0
-0.085,-0.0347,1.0571,-1.6794,0.4504,0.1527,0,0,0
-0.0732,-0.0271,1.0378,-1.1374,1.8855,1.2824,0,0,0
-0.0681,-0.0159,1.0317,-1.4962,1.3359,0.8168,0,0,0
-0.0654,-0.0151,1.0215,-1.9008,-0.1298,-1.1679,0,0,0
-0.0708,-0.0225,1.0273,-0.8931,-1.6031,-2.9008,0,0,0
-0.0784,-0.0166,1.0369,0.9542,-2.2137,-2.7328,0,0,0
-0.082,-0.0247,1.0405,1.5038,-1.7176,-0.855,0,0,0
-0.075,-0.0166,1.0229,2.9237,-1.1145,0.458,0,0,0
-0.0647,-0.009,1.0076,2.0916,-0.7252,1.3969,0,0,0
-0.0603,-0.0071,1.0149,-0.8931,-1.229,0.5115,0,0,0
-0.0654,-0.0093,1.0217,-3.1603,-1.1221,-0.8855,0,0,0
-0.0657,-0.0139,1.0315,-3.4046,-0.9008,-2.1298,0,0,0
-0.0664,-0.0151,1.03,-2.7176,0.5649,-2.542,0,0,0
-0.0684,-0.0171,1.0183,-2.7786,1.4962,-1.4733,0,0,0
-0.0679,-0.019,1.0156,-2.8779,0.9466,-1.1679,0,0,0
-0.073,-0.0171,1.0193,-3.5191,0.4962,-1.5802,0,0,0
-0.0759,-0.0161,1.0254,-3.7634,0.9847,-2.0458,0,0,0
-0.0771,-0.0291,1.0273,-3.687,1.7023,-2.145,0,0,0
-0.074,-0.0276,1.0312,-4.1374,2.3893,-0.7176,0,0,0
-0.0745,-0.0293,1.033,-4.8321,1.771,0.7557,0,0,0
-0.0754,-0.0286,1.033,-3.5802,0.7481,1.0229,0,0,0
-0.0737,-0.0225,1.0266,-1.8702,-1.5649,0.1756,0,0,0
-0.0681,-0.0266,1.0393,0.0687,-3.4046,-1.1756,0,0,0
-0.0632,-0.0247,1.0378,2.4351,-3.855,-2.145,0,0,0
-0.0647,-0.0225,1.0413,2.8779,-2.8168,-2.3893,0,0,0
-0.072,-0.0188,1.0298,1.7023,-1.1908,-2.145,0,0,0
-0.073,-0.0225,1.0166,-0.229,0.6565,-1.6183,0,0,0
-0.0769,-0.02,1.0249,-1.8473,1.9237,-0.7481,0,0,0
-0.082,-0.0195,1.0144,-3.2137,1.374,0.229,0,0,0
-0.0828,-0.0222,1.0137,-3.8931,-0.5344,0.9237,0,0,0
-0.0864,-0.0227,1.0276,-3.4198,-2.0229,1.0534,0,0,0
-0.0769,-0.0227,1.02,-1.1679,-3.313,0.5802,0,0,0
-0.0657,-0.0161,1.021,0.0229,-4.1603,-0.3282,0,0,0
-0.0613,-0.0129,1.0269,-0.5649,-3.9618,-0.687,0,0,0
-0.0645,-0.0098,1.0305,-1.0763,-1.9847,-1.0229,0,0,0
-0.0608,-0.0098,1.033,-2.8015,0.145,-0.9389,0,0,0
-0.0667,-0.0083,1.0337,-5.2901,2.1298,-0.3588,0,0,0
-0.0754,-0.0103,1.0454,-6.8015,3.3588,-0.1221,0,0,0
-0.0708,-0.0154,1.0366,-6.1145,3.6107,-0.2748,0,0,0
-0.0735,-0.0146,1.0364,-4.0153,2.1603,-1.5191,0,0,0
-0.0708,-0.0205,1.0264,-2.0763,-0.4046,-2.5115,0,0,0
-0.0796,-0.0276,1.0371,-0.3664,-2.8015,-3.1832,0,0,0
-0.0808,-0.0291,1.0493,0.4885,-3.2595,-2.6107,0,0,0
-0.0842,-0.0366,1.0498,1.3588,-2.3206,-1.916,0,0,0
-0.0757,-0.0354,1.0437,1.7786,-0.687,-0.5649,0,0,0
-0.0779,-0.0315,1.0286,1.7099,0.687,0.5038,0,0,0
-0.0718,-0.0222,1.012,1.7099,1.1679,1.0153,0,0,0
-0.063,-0.0144,1.0063,0.687,0.8779,1.0,0,0,0
-0.0635,-0.0083,0.9973,0.1832,-1.2519,-0.2519,0,0,0
-0.062,-0.001,1.0098,-1.1221,-2.7252,-1.916,0,0,0
-0.0669,-0.0107,1.0298,-2.084,-2.9466,-2.7481,0,0,0
-0.0698,-0.0176,1.0381,-2.458,-1.7634,-3.0,0,0,0
-0.0757,-0.0276,1.0496,-2.6718,0.3511,-1.7634,0,0,0
-0.0791,-0.0273,1.0366,-1.5802,1.2519,-0.8168,0,0,0
-0.0813,-0.019,1.032,-0.8092,0.6107,-0.4122,0,0,0
-0.0715,-0.019,1.0217,-0.7099,-0.6565,-0.4733,0,0,0
-0.0676,-0.0186,1.0232,-1.2672,-1.3282,-1.0305,0,0,0
-0.0645,-0.0178,1.0305,-1.8626,-0.9313,-1.6489,0,0,0
-0.0662,-0.0266,1.0303,-2.7252,0.5191,-1.7557,0,0,0
-0.064,-0.0171,1.0198,-3.2595,1.2595,-1.6565,0,0,0
-0.0679,-0.0156,1.0183,-4.3359,1.313,-1.5191,0,0,0
-0.0745,-0.0149,1.033,-5.2366,0.5267,-1.2519,0,0,0
-0.0769,-0.0276,1.0293,-4.3053,0.0992,-1.1832,0,0,0
-0.0715,-0.0254,1.0269,-3.0076,-0.2748,-1.3817,0,0,0
-0.0696,-0.0254,1.032,-2.4809,-0.5267,-1.3053,0,0,0
-0.0713,-0.0276,1.0259,-2.3435,-0.5725,-0.9924,0,0,0
-0.0684,-0.0269,1.0391,-3.0,-0.2214,-1.0,0,0,0
-0.0696,-0.0217,1.0371,-2.7328,0.0153,-1.5267,0,0,0
-0.0776,-0.0259,1.0327,-1.1145,-0.0305,-2.1145,0,0,0
-0.0747,-0.0278,1.0325,-0.4504,-0.0992,-2.3282,0,0,0
-0.0759,-0.0232,1.0315,-0.4275,-0.6412,-1.4427,0,0,0
-0.0796,-0.0181,1.0271,-0.9618,-1.0763,-1.1985,0,0,0
-0.0806,-0.0227,1.0198,-1.1374,-1.5344,-0.7099,0,0,0
-0.0776,-0.0176,1.0093,-1.6412,-2.2901,-0.8397,0,0,0
-0.0752,-0.0151,1.009,-2.4275,-2.0763,-0.9466,0,0,0
-0.0762,-0.0186,1.0361,-3.9771,-0.9466,-1.1145,0,0,0
-0.0698,-0.0247,1.0474,-4.5802,0.7481,-0.6412,0,0,0
-0.0735,-0.0273,1.0359,-2.3588,1.8931,-0.458,0,0,0
-0.0762,-0.0259,1.0244,-1.0382,0.9771,-0.687,0,0,0
-0.072,-0.0198,1.0154,-0.5115,-1.0,-0.5954,0,0,0
-0.075,-0.0198,1.0217,-0.9618,-2.2366,-0.916,0,0,0
-0.0732,-0.0193,1.0239,-0.9389,-2.4656,-1.1756,0,0,0
-0.0713,-0.0144,1.0276,-2.0611,-1.2672,-1.1603,0,0,0
-0.0625,-0.0127,1.0334,-4.229,-0.0534,-0.4046,0,0,0
-0.0645,-0.0188,1.0356,-4.7939,0.8168,-0.3588,0,0,0
-0.064,-0.022,1.0234,-3.7481,0.5267,-1.084,0,0,0
-0.0723,-0.0232,1.0217,-1.8015,-0.2137,-1.9084,0,0,0
-0.0769,-0.0264,1.0083,0.2977,-1.9084,-1.7405,0,0,0
-0.075,-0.0168,1.0166,0.626,-3.2366,-1.0229,0,0,0
-0.0735,-0.0139,1.0212,-1.084,-3.771,-0.687,0,0,0
-0.0688,-0.0171,1.0327,-2.7099,-2.687,-1.0,0,0,0
-0.0649,-0.0212,1.0325,-3.458,-1.2061,-1.0916,0,0,0
-0.0635,-0.0259,1.0378,-3.2901,0.2901,-1.3969,0,0,0
-0.0703,-0.0217,1.0432,-3.2672,1.6031,-1.3664,0,0,0
-0.0728,-0.0283,1.0269,-2.229,1.5954,-0.9847,0,0,0
-0.0771,-0.031,1.0166,-2.2977,-0.1069,-0.6489,0,0,0
-0.0737,-0.0305,1.02,-2.8931,-2.229,-0.374,0,0,0
-0.071,-0.0342,1.0332,-2.1145,-3.4046,-0.1756,0,0,0
-0.0688,-0.0317,1.0325,-0.8015,-3.8779,0.2366,0,0,0
-0.0732,-0.0308,1.0417,-0.1221,-3.6718,0.4275,0,0,0
-0.0652,-0.0332,1.0483,0.5496,-1.7176,0.3206,0,0,0
-0.0671,-0.0303,1.0366,1.5191,0.0,-0.1985,0,0,0
-0.0632,-0.0271,1.0193,1.7023,1.3206,-0.313,0,0,0
-0.0659,-0.021,1.0024,1.1069,1.2595,-0.2519,0,0,0
-0.0703,-0.0129,1.0007,-0.7481,0.1069,-0.5725,0,0,0
-0.0774,-0.0168,1.0042,-3.2214,-0.6641,-0.2748,0,0,0
-0.0759,-0.0229,1.0164,-4.1832,-1.3435,0.2137,0,0,0
-0.0732,-0.021,1.0286,-4.1679,-0.8702,1.0153,0,0,0
-0.064,-0.0242,1.0249,-3.1374,-0.5954,1.3893,0,0,0
-0.0662,-0.0205,1.0251,-0.9924,-1.2672,1.4656,0,0,0
-0.0674,-0.0161,1.0195,-0.687,-2.9847,0.5573,0,0,0
-0.0647,-0.0164,1.0234,-0.9313,-4.1221,-0.1908,0,0,0
-0.0688,-0.0295,1.0322,-0.4656,-4.1603,-0.2595,0,0,0
-0.0647,-0.0269,1.0352,-0.2061,-2.4885,0.145,0,0,0
-0.0652,-0.0247,1.0369,-1.0305,-0.2519,0.4733,0,0,0
-0.0593,-0.0215,1.0398,-1.374,1.0992,0.8321,0,0,0
-0.062,-0.019,1.0437,-3.9771,1.626,1.4504,0,0,0
-0.0659,-0.0188,1.0471,-4.6718,1.8702,1.3969,0,0,0
-0.0591,-0.0164,1.0376,-1.3664,0.3511,0.542,0,0,0
-0.0603,-0.0193,1.0364,0.6412,-1.5038,-0.4962,0,0,0
-0.0637,-0.0149,1.0259,-0.1298,-2.5267,-1.1527,0,0,0
-0.0684,-0.0256,1.0322,-1.1145,-2.4275,-1.7176,0,0,0
-0.0715,-0.0242,1.0457,-0.3053,-1.5191,-1.5496,0,0,0
-0.0737,-0.033,1.0371,0.3969,0.2366,-1.3511,0,0,0
-0.0723,-0.0188,1.0173,-0.2366,0.8931,-0.4198,0,0,0
-0.0771,-0.0178,1.0173,-2.1221,0.4962,-0.1832,0,0,0
-0.074,-0.0139,1.0254,-2.6794,-0.3969,-0.1756,0,0,0
-0.075,-0.021,1.0247,-3.4351,-1.0687,0.0076,0,0,0
-0.0723,-0.0261,1.0249,-1.0687,-2.0458,0.0153,0,0,0
-0.0671,-0.0212,1.0312,0.2366,-2.0916,0.1527,0,0,0
-0.062,-0.021,1.0183,-0.2137,-1.8168,0.6947,0,0,0
-0.063,-0.0144,1.0295,-1.5878,-0.8702,0.7252,0,0,0
-0.0579,-0.0149,1.03,-3.4504,0.4198,0.9847,0,0,0
-0.0566,-0.0217,1.0352,-3.6489,1.6947,0.7023,0,0,0
-0.0552,-0.0168,1.0203,-2.4275,1.1985,-0.084,0,0,0
-0.0586,-0.0156,1.0291,-2.374,0.6794,-0.7939,0,0,0
-0.0642,-0.0212,1.0283,-2.0,-0.0458,-1.3359,0,0,0
-0.0635,-0.0247,1.0298,-1.4198,-0.1527,-1.4427,0,0,0
-0.0718,-0.0244,1.0288,-1.1069,0.687,-0.9466,0,0,0
-0.0703,-0.0229,1.0168,-0.8702,0.7405,-0.4733,0,0,0
-0.0752,-0.0178,1.0261,-2.229,0.2672,-0.4122,0,0,0
-0.0754,-0.0239,1.0317,-3.5802,0.8168,-0.0611,0,0,0
-0.0813,-0.0261,1.0291,-3.2519,0.4122,-0.0229,0,0,0
-0.0798,-0.0264,1.0386,-2.3588,-0.3588,0.542,0,0,0
-0.0793,-0.0227,1.0383,-1.4809,-0.8015,0.9237,0,0,0
-0.0759,-0.0161,1.0251,-1.0763,-1.7099,0.9008,0,0,0
-0.0676,-0.0154,1.0229,-1.1985,-1.8168,0.3206,0,0,0
-0.0647,-0.0168,1.0276,-1.8931,-1.7328,0.1374,0,0,0
-0.0627,-0.0159,1.0393,-1.9695,-0.9389,-0.3817,0,0,0
-0.0647,-0.0186,1.0339,-2.0382,0.084,-0.5267,0,0,0
-0.0688,-0.0217,1.019,-1.8779,0.5802,-0.3053,0,0,0
-0.072,-0.0151,1.0154,-0.9084,0.2519,-0.6412,0,0,0
-0.0693,-0.0107,1.0151,-2.145,-0.9695,-0.2366,0,0,0
-0.0664,-0.0181,1.0283,-3.0305,-1.0687,-0.1756,0,0,0
-0.063,-0.0222,1.0361,-2.8168,-0.4656,0.0153,0,0,0
-0.062,-0.0168,1.0398,-1.7481,0.7634,-0.5496,0,0,0
-0.0618,-0.0178,1.0371,-1.8244,2.6947,-0.7328,0,0,0
-0.0654,-0.022,1.0286,-2.374,4.1908,-1.3588,0,0,0
-0.0667,-0.0156,1.0146,-2.7328,4.2901,-1.5573,0,0,0
-0.073,-0.0193,1.0142,-2.8626,3.3053,-1.771,0,0,0
-0.0789,-0.0239,1.0142,-3.2901,1.2519,-1.1298,0,0,0
-0.082,-0.0227,1.0239,-3.2443,-1.2977,-0.7328,0,0,0
-0.0786,-0.0273,1.0444,-2.626,-2.0382,-0.5344,0,0,0
-0.073,-0.0359,1.0476,-1.1756,-1.9618,-0.6489,0,0,0
-0.0703,-0.0308,1.0371,1.0229,-1.5496,-0.1374,0,0,0
-0.0671,-0.0203,1.0278,1.8931,-1.5802,-0.2748,0,0,0
-0.0637,-0.02,1.0198,1.2366,-2.3588,-0.6718,0,0,0
-0.071,-0.0127,1.0203,-0.6718,-2.1603,-1.145,0,0,0
-0.0732,-0.0198,1.0225,-0.771,-1.4733,-0.6107,0,0,0
-0.0698,-0.0266,1.0271,-0.9084,-0.1069,-0.0153,0,0,0
-0.0708,-0.0217,1.0215,-0.3664,1.0611,0.5115,0,0,0
-0.0637,-0.0166,1.0105,-1.5191,1.2977,0.2443,0,0,0
-0.0654,-0.0146,1.0137,-2.6641,0.2901,-0.5191,0,0,0
-0.072,-0.02,1.0193,-2.9084,-0.3206,-1.2137,0,0,0
-0.0754,-0.0269,1.0308,-1.374,-0.2977,-0.8397,0,0,0
-0.0732,-0.0215,1.0227,0.2137,-1.0305,-0.626,0,0,0
-0.0701,-0.0159,1.0212,-0.4504,-1.4504,-0.4656,0,0,0
-0.0708,-0.0208,1.0269,-1.8244,-1.458,-0.229,0,0,0
-0.0715,-0.0249,1.0447,-1.916,-0.8244,0.1298,0,0,0
-0.0715,-0.0239,1.0442,-0.9237,0.2137,0.2824,0,0,0
-0.0745,-0.0166,1.0342,-1.5573,-0.0916,0.0076,0,0,0
-0.0774,-0.0129,1.0186,-1.5115,-0.9237,-1.0,0,0,0
-0.0762,-0.0193,1.0232,-1.6336,-2.4885,-1.2824,0,0,0
-0.0754,-0.022,1.0381,-1.4351,-2.3053,-0.3511,0,0,0
-0.0762,-0.0293,1.0449,-1.5573,-0.6336,0.2214,0,0,0
-0.0706,-0.0249,1.0295,-2.1756,0.9542,0.7405,0,0,0
-0.0713,-0.0244,1.03,-3.0534,1.2061,1.0458,0,0,0
-0.0647,-0.0215,1.0212,-2.3588,0.4427,0.771,0,0,0
-0.0642,-0.0156,1.0229,-1.687,-0.1603,-0.8473,0,0,0
-0.0681,-0.0125,1.0288,-1.5573,-0.8473,-1.084,0,0,0
-0.0732,-0.0254,1.0325,-1.6718,-1.2901,-0.9008,0,0,0
-0.0728,-0.021,1.0237,-0.7252,-1.7328,-0.3511,0,0,0
-0.0703,-0.0183,1.0173,0.1603,-2.0153,-0.4046,0,0,0
-0.0747,-0.0171,1.0322,-0.4962,-2.3588,-0.3969,0,0,0
-0.071,-0.0166,1.0269,-1.5573,-1.7176,0.4122,0,0,0
-0.0737,-0.0193,1.0278,-1.7023,-1.3282,0.9389,0,0,0
-0.0703,-0.0198,1.031,-1.2366,-0.8779,0.9924,0,0,0
-0.0667,-0.0166,1.0308,-1.2519,0.0,1.0229,0,0,0
-0.0698,-0.0117,1.0178,-0.9771,0.1221,0.2672,0,0,0
-0.0623,-0.0085,1.0251,-2.6565,0.542,-0.6031,0,0,0
-0.0642,-0.0115,1.0312,-3.7557,0.8244,-0.3282,0,0,0
-0.0603,-0.0137,1.0374,-4.8473,1.4885,0.0687,0,0,0
-0.0615,-0.0115,1.0376,-3.9084,1.3969,0.0382,0,0,0
-0.064,-0.0188,1.0288,-0.9771,0.8244,-0.2443,0,0,0
-0.0623,-0.0159,1.0261,0.3206,-0.687,-0.8626,0,0,0
-0.0647,-0.0154,1.0247,-0.3359,-1.0687,-1.4198,0,0,0
-0.0679,-0.021,1.019,-1.2061,-0.1145,-1.9313,0,0,0
-0.0693,-0.0286,1.0242,-0.6031,0.771,-1.2137,0,0,0
-0.0715,-0.0249,1.0107,0.0229,0.916,-0.374,0,0,0
-0.0818,-0.0212,1.0144,-0.0763,0.4198,-0.0916,0,0,0
-0.0801,-0.0168,1.0127,-0.145,-1.3435,0.0458,0,0,0
-0.0793,-0.0176,1.0142,-0.2366,-2.3893,0.2519,0,0,0
-0.0735,-0.0237,1.0271,-0.0153,-3.2672,0.374,0,0,0
-0.074,-0.0139,1.02,0.8015,-3.458,0.3359,0,0,0
-0.0708,-0.0117,1.0308,0.0229,-3.4809,0.0611,0,0,0
-0.0735,-0.0159,1.0442,-0.9924,-2.9084,0.5649,0,0,0
-0.0737,-0.02,1.0378,-0.9618,-1.7634,1.0763,0,0,0
-0.0605,-0.0151,1.0435,-0.3588,-0.7176,0.687,0,0,0
-0.0601,-0.0066,1.0369,-0.2366,-0.084,0.0916,0,0,0
-0.0598,-0.0076,1.0327,-1.229,-0.458,-0.8397,0,0,0
-0.0649,-0.0125,1.0247,-1.687,-1.2443,-1.5954,0,0,0
-0.072,-0.0137,1.0259,-2.1069,-1.5573,-1.8473,0,0,0
-0.0676,-0.0173,1.0371,-1.7023,-0.8244,-1.145,0,0,0
-0.064,-0.0181,1.0413,-2.1069,0.0076,-0.2977,0,0,0
-0.0688,-0.0183,1.0435,-1.8702,0.9847,-0.2977,0,0,0
-0.061,-0.0117,1.031,-1.1908,1.8702,-0.9542,0,0,0
-0.0645,-0.0107,1.0261,-1.5191,1.2214,-1.8397,0,0,0
-0.0708,-0.0178,1.0225,-2.1527,0.1145,-1.9847,0,0,0
-0.0764,-0.0229,1.0298,-2.0763,-0.5802,-1.7252,0,0,0
-0.0776,-0.022,1.0276,-1.4656,-0.7786,-0.6412,0,0,0
-0.0815,-0.0249,1.03,-0.6183,-0.771,-0.0534,0,0,0
-0.0784,-0.0176,1.0298,-0.4504,-1.2214,0.4504,0,0,0
-0.0818,-0.0266,1.0266,-2.1069,-1.1603,0.9847,0,0,0
-0.0703,-0.0259,1.011,-1.9618,-0.6641,0.8855,0,0,0
-0.0627,-0.0164,1.019,-1.855,-1.2061,0.5954,0,0,0
-0.0601,-0.0132,1.0171,-2.2748,-0.5878,0.2443,0,0,0
-0.0581,-0.0125,1.0288,-2.6947,0.2443,0.0,0,0,0
-0.0642,-0.0183,1.0261,-2.7634,0.3435,0.0,0,0,0
-0.0696,-0.0151,1.02,-2.0,-0.5344,0.0992,0,0,0
-0.0669,-0.0156,1.0298,-1.8397,-1.3511,0.1908,0,0,0
-0.0732,-0.0103,1.033,-1.687,-1.3053,0.458,0,0,0
-0.0586,-0.0139,1.0288,-1.542,-0.7176,0.3053,0,0,0
-0.0557,-0.0103,1.0227,-1.8702,-0.3893,0.0153,0,0,0
-0.0557,-0.0029,1.0303,-3.2366,0.0916,-0.7786,0,0,0
-0.0645,-0.0039,1.0422,-2.8855,0.9618,-1.4275,0,0,0
-0.0698,-0.0076,1.0408,-2.2672,1.8397,-1.5802,0,0,0
-0.0708,-0.0071,1.0281,-1.7557,1.3817,-1.3282,0,0,0
-0.0735,-0.0081,1.0237,-1.7176,0.687,-1.3053,0,0,0
-0.075,-0.0154,1.0271,-1.6794,0.7557,-1.3053,0,0,0
-0.075,-0.0164,1.0181,-2.0153,0.7481,-0.0687,0,0,0
-0.0657,-0.01,1.0081,-2.5038,-1.1145,0.3588,0,0,0
-0.0706,-0.0061,1.0239,-3.4122,-2.9924,-0.3282,0,0,0
-0.0718,-0.0107,1.0413,-2.0305,-3.626,-1.7634,0,0,0
-0.0715,-0.0234,1.0381,1.2061,-3.3969,-2.0687,0,0,0
-0.0671,-0.0166,1.0386,2.0458,-2.0305,-1.4885,0,0,0
-0.0657,-0.0146,1.0371,-0.2977,-0.3053,-0.8931,0,0,0
-0.0647,-0.0149,1.0215,-2.374,1.0916,-0.3053,0,0,0
-0.0703,-0.0132,1.01,-3.7023,1.2519,-0.3206,0,0,0
-0.0713,-0.012,1.0208,-4.9237,1.3206,-0.2748,0,0,0
-0.0667,-0.0239,1.0315,-5.0534,2.0687,-0.1069,0,0,0
-0.064,-0.0183,1.0339,-3.4427,1.1374,-0.3435,0,0,0
-0.0657,-0.0105,1.0361,-2.8626,0.1069,-1.5573,0,0,0
-0.0686,-0.0198,1.042,-3.3817,-0.4351,-2.8855,0,0,0
-0.071,-0.0249,1.0371,-2.8473,0.2366,-2.7405,0,0,0
-0.0796,-0.0278,1.0432,-1.8702,0.6107,-2.1985,0,0,0
-0.0854,-0.0371,1.0356,1.1374,0.4198,-1.5344,0,0,0
-0.0793,-0.0222,1.0171,-0.8015,0.3817,-0.9618,0,0,0
-0.073,-0.0183,1.0054,-1.3206,-0.7481,-0.4885,0,0,0
-0.0693,-0.0134,1.0149,-3.1374,-2.313,-0.5191,0,0,0
-0.0701,-0.0181,1.0337,-3.1756,-2.1145,-0.6183,0,0,0
-0.0691,-0.0168,1.0359,-2.0534,-0.7557,-1.0382,0,0,0
-0.0632,-0.019,1.0437,-2.0992,0.6794,-0.458,0,0,0
-0.0654,-0.0164,1.0171,-2.7023,1.3588,0.2672,0,0,0
-0.0608,-0.0117,1.0186,-3.3359,-0.1603,-0.1985,0,0,0
-0.0635,-0.0127,1.0317,-3.4885,-0.7405,-1.2443,0,0,0
-0.0671,-0.0168,1.0396,-2.9847,-0.8168,-1.8321,0,0,0
-0.0654,-0.0215,1.0334,-2.0534,-0.0305,-1.2748,0,0,0
-0.0647,-0.0208,1.032,-0.855,0.6336,-0.9542,0,0,0
-0.0659,-0.0139,1.0242,-1.7634,1.0382,-0.9237,0,0,0
-0.0632,-0.0203,1.0217,-2.2977,0.7634,-1.6641,0,0,0
-0.0703,-0.0193,1.0242,-2.2137,0.2672,-2.0611,0,0,0
-0.0732,-0.0237,1.0208,-1.626,0.0458,-2.3969,0,0,0
-0.0784,-0.0181,1.0259,-1.3435,-0.1374,-2.1527,0,0,0
-0.0742,-0.0232,1.0151,-0.9847,-0.3435,-1.3664,0,0,0
-0.0813,-0.0164,1.0117,-1.7405,-0.2901,-0.6565,0,0,0
-0.0798,-0.0205,1.012,-3.0687,-0.3359,-0.0076,0,0,0
-0.0776,-0.0142,1.0208,-3.7099,0.2672,0.0611,0,0,0
-0.074,-0.0144,1.0303,-3.8702,0.2901,0.687,0,0,0
-0.071,-0.0176,1.0222,-2.2214,-0.7786,0.6641,0,0,0
-0.0647,-0.0146,1.0244,-1.7634,-1.2443,0.6031,0,0,0
-0.0596,-0.0146,1.0239,-2.1221,-1.5496,-0.0382,0,0,0
-0.0632,-0.0105,1.0142,-2.2519,-1.9084,-0.6107,0,0,0
-0.0605,-0.02,1.0261,-1.855,-1.7023,-0.7023,0,0,0
-0.0637,-0.0127,1.0352,-2.5496,-1.0992,-0.2977,0,0,0
-0.0659,-0.0244,1.0461,-2.9389,1.1985,-0.2443,0,0,0
-0.0618,-0.0215,1.0339,-1.9237,1.9618,0.1145,0,0,0
-0.0593,-0.0215,1.0312,-2.0992,2.8779,0.0992,0,0,0
-0.0657,-0.019,1.031,-2.6947,2.1298,-0.5954,0,0,0
-0.0745,-0.0188,1.0249,-2.8321,0.9695,-1.3282,0,0,0
-0.0767,-0.0276,1.0312,-0.3969,-0.2977,-1.5573,0,0,0
-0.0818,-0.0161,1.0366,0.7328,-0.9313,-2.0916,0,0,0
-0.0801,-0.0278,1.0254,0.9466,-1.1679,-1.8931,0,0,0
-0.0801,-0.0195,1.0281,0.3588,-1.2061,-1.8397,0,0,0
-0.0833,-0.0261,1.0178,-0.9618,-0.9237,-1.1679,0,0,0
-0.0815,-0.0247,1.0142,-1.3511,-0.6794,-0.458,0,0,0
-0.0833,-0.022,1.0203,-2.6031,-1.0382,-0.1374,0,0,0
-0.0811,-0.0183,1.0266,-3.7099,-0.9237,0.0763,0,0,0
-0.0815,-0.0222,1.0393,-3.9847,-0.4962,0.0687,0,0,0
-0.0752,-0.0178,1.0422,-3.2824,-0.5954,-0.458,0,0,0
-0.0784,-0.019,1.0469,-2.4809,-0.4427,-0.7939,0,0,0
-0.0745,-0.0166,1.0371,-1.6107,-1.6336,-0.7099,0,0,0
-0.0735,-0.0132,1.0325,-1.6794,-2.7786,-1.6947,0,0,0
-0.0725,-0.0115,1.0442,-1.8931,-3.0153,-2.229,0,0,0
-0.0757,-0.0203,1.0454,-2.1756,-2.4504,-2.084,0,0,0
-0.0735,-0.0203,1.0454,-2.3893,-1.2214,-1.084,0,0,0
-0.0762,-0.0188,1.0366,-2.4656,-0.3053,-0.5573,0,0,0
-0.0664,-0.0156,1.0242,-2.4656,-0.2137,-0.687,0,0,0
-0.0671,-0.0105,1.0261,-2.7099,0.2061,-1.5267,0,0,0
-0.0676,-0.0115,1.0178,-2.0992,-0.3511,-1.9924,0,0,0
-0.0659,-0.009,1.0232,-0.7557,-0.771,-1.8397,0,0,0
-0.0657,-0.0093,1.0308,-1.9695,-0.5878,-2.1221,0,0,0
-0.0669,-0.0127,1.0312,-3.1374,-0.0763,-2.7786,0,0,0
-0.0662,-0.0166,1.0227,-2.4733,0.2977,-3.1985,0,0,0
-0.0645,-0.019,1.0227,-1.458,0.3969,-3.542,0,0,0
-0.0693,-0.0154,1.0229,-1.2901,0.1832,-3.5725,0,0,0
-0.0813,-0.0186,1.0156,-1.7557,-0.5267,-3.1298,0,0,0
-0.0784,-0.0208,1.0068,-0.916,-1.5725,-2.7939,0,0,0
-0.0754,-0.0198,1.0134,-1.5115,-2.4351,-2.5115,0,0,0
-0.0698,-0.0276,1.0205,-2.4809,-2.6336,-1.6947,0,0,0
-0.0615,-0.0237,1.0293,-3.313,-2.0382,-1.3511,0,0,0
-0.0627,-0.0237,1.0325,-3.458,-1.2366,-1.3435,0,0,0
-0.0569,-0.0186,1.0334,-4.2977,-0.1603,-1.8015,0,0,0
-0.0549,-0.0293,1.0469,-4.1832,1.0992,-2.4198,0,0,0
-0.0588,-0.0281,1.0483,-3.687,2.8779,-3.4809,0,0,0
-0.0659,-0.0366,1.0403,-2.0229,3.0229,-4.1832,0,0,0
-0.071,-0.04,1.0229,-0.7405,2.3893,-4.6718,0,0,0
-0.082,-0.033,1.0164,0.4275,0.2748,-4.4809,0,0,0
-0.0854,-0.0266,1.009,0.3817,-1.542,-3.9618,0,0,0
-0.0837,-0.0371,1.0188,-0.9313,-2.3206,-2.8244,0,0,0
-0.0872,-0.0369,1.0271,-2.4122,-3.0687,-0.9466,0,0,0
-0.082,-0.0364,1.0251,-1.8397,-2.5344,0.5038,0,0,0
-0.0701,-0.0308,1.0151,0.2748,-2.6947,1.313,0,0,0
-0.0603,-0.0278,1.0139,0.0992,-2.8397,1.3893,0,0,0
-0.0564,-0.0181,1.0295,-1.9695,-2.4733,0.7023,0,0,0
-0.0474,-0.0161,1.0349,-3.1756,-1.4885,-0.1221,0,0,0
-0.0498,-0.0212,1.0491,-3.2061,0.4656,-1.374,0,0,0
-0.0525,-0.0256,1.043,-2.3053,2.0458,-2.1298,0,0,0
-0.0647,-0.0298,1.04,-2.374,2.8168,-2.229,0,0,0
-0.0745,-0.0349,1.0288,-1.4427,2.6107,-1.5878,0,0,0
-0.0854,-0.0388,1.0122,-0.7176,1.3282,-0.2977,0,0,0
-0.0864,-0.0325,1.0129,-0.6718,-1.855,0.3817,0,0,0
-0.0864,-0.0313,1.0239,-0.4504,-3.542,1.1145,0,0,0
-0.0793,-0.0308,1.0266,-0.1603,-4.1756,1.3817,0,0,0
-0.0757,-0.0278,1.0315,0.8244,-3.5878,1.855,0,0,0
-0.0635,-0.0186,1.0327,0.3206,-3.2595,1.9695,0,0,0
-0.0618,-0.0195,1.0317,-0.3588,-2.8473,1.4733,0,0,0
-0.0532,-0.0134,1.0378,-0.2901,-2.0076,0.6336,0,0,0
-0.0515,-0.0183,1.0493,-1.2137,-0.0076,-0.0229,0,0,0
-0.0562,-0.0188,1.0386,-0.5267,1.7481,0.0611,0,0,0
-0.0637,-0.0088,1.0239,-2.2901,2.5115,-0.0687,0,0,0
-0.0688,-0.0161,1.0283,-3.3282,2.2214,-0.2061,0,0,0
-0.0754,-0.0178,1.0332,-4.1908,1.145,-0.084,0,0,0
-0.074,-0.0239,1.0356,-2.2137,0.5802,0.2137,0,0,0
-0.0742,-0.0195,1.0349,-0.771,-0.0763,0.5802,0,0,0
-0.0754,-0.0215,1.0364,-0.0076,-0.5115,0.5344,0,0,0
-0.0767,-0.0227,1.0308,-0.1145,-0.084,0.3893,0,0,0
-0.0774,-0.0208,1.0315,-0.1374,0.4504,0.6336,0,0,0
-0.0708,-0.0164,1.0315,-0.0382,1.5038,0.9237,0,0,0
-0.0574,-0.0127,1.0332,-1.2977,2.6107,0.6641,0,0,0
-0.054,-0.0112,1.033,-2.687,4.2901,-0.2443,0,0,0
-0.0605,-0.0139,1.0413,-6.1374,7.1527,-0.6031,0,0,0
-0.0627,-0.0212,1.054,-7.6031,10.7328,-0.2672,0,0,0
-0.0669,-0.0154,1.0493,-7.6794,13.3435,-0.1679,0,0,0
-0.0579,-0.0107,1.0544,-7.5725,15.542,-0.0229,0,0,0
-0.0598,-0.0186,1.0657,-8.145,18.2443,-0.7557,0,0,0
-0.0591,-0.0205,1.0835,-11.084,23.687,-2.2977,0,0,0
-0.061,-0.0317,1.1104,-10.2824,32.3664,-3.7252,0,0,0
-0.0732,0.0361,1.1348,-12.3511,42.5878,-7.3282,0,0,0
-0.074,-0.0671,1.1152,-11.4275,53.4427,-7.1527,0,0,0
-0.0771,-0.0303,1.0923,-7.4504,61.1756,-5.0763,0,0,0
-0.1125,-0.0322,1.0686,-5.9237,65.7786,-3.2366,0,0,0
-0.1228,-0.0178,1.0625,-6.1221,67.3206,-1.145,0,0,0
-0.1445,-0.0234,1.054,-10.2366,66.2443,-2.9389,0,0,0
-0.1611,-0.0532,1.0942,-6.4198,69.5878,-3.3588,0,0,0
-0.179,-0.0474,1.0789,-0.9008,74.6412,-4.2137,0,0,0
-0.1804,-0.0454,1.0405,5.1069,77.0,-4.5649,0,0,0
-0.2034,-0.0308,0.9951,7.5267,77.2061,-4.9695,0,0,0
-0.2197,-0.0317,0.9619,6.1832,73.3435,-4.9771,0,0,0
-0.2627,0.0603,0.9495,2.7863,66.855,-8.771,0,0,0
-0.2407,-0.063,0.9048,3.9542,59.2748,-8.5344,0,0,0
-0.2532,-0.019,0.907,4.7786,49.8779,-9.458,0,0,0
-0.2776,-0.032,0.8975,7.1069,40.0229,-9.4427,0,0,0
-0.2981,-0.0215,0.9067,5.2519,29.6336,-9.1069,0,0,0
-0.3069,-0.031,0.8992,1.8244,19.4275,-8.1756,0,0,0
-0.3152,-0.0339,0.9258,0.229,11.0992,-5.1985,0,0,0
-0.3159,-0.0325,0.9324,1.7557,4.3893,-2.7634,0,0,0
-0.3081,-0.0383,0.9692,3.626,2.1527,-1.8244,0,0,0
-0.3037,-0.0413,1.0044,3.1221,4.5344,-0.3969,0,0,0
-0.2976,-0.0396,1.0256,1.7328,10.8779,1.0153,0,0,0
-0.2847,-0.0454,1.0249,0.7786,19.1145,2.313,0,0,0
-0.2778,-0.0337,1.0188,-1.374,24.8397,3.2901,0,0,0
-0.2815,-0.0337,0.999,-1.8092,27.4962,3.6107,0,0,0
-0.2874,-0.0227,0.9534,-1.6336,24.9847,2.916,0,0,0
-0.3022,-0.0232,0.9312,-0.7405,20.0458,1.5267,0,0,0
-0.3108,-0.021,0.9304,-0.4962,13.3511,-0.8015,0,0,0
-0.3218,-0.03,0.9448,0.8015,8.2366,-1.7634,0,0,0
-0.3242,-0.031,0.9504,2.0916,4.6031,-2.2672,0,0,0
-0.3247,-0.0317,0.9619,3.6183,2.3588,-1.9618,0,0,0
-0.3269,-0.0239,0.9619,3.6565,1.6031,-0.4809,0,0,0
-0.3186,-0.0269,0.949,1.2061,1.3511,0.5649,0,0,0
-0.3123,-0.0237,0.9548,-1.3359,0.7481,1.1298,0,0,0
-0.3169,-0.0203,0.9612,-2.3588,0.1908,0.7557,0,0,0
-0.3137,-0.0244,0.9731,-1.7405,-0.0916,0.1298,0,0,0
-0.3164,-0.022,0.968,-1.1221,-0.2977,-0.2748,0,0,0
-0.3115,-0.0237,0.9636,-1.8244,-0.7099,0.2519,0,0,0
-0.3142,-0.0278,0.9719,-2.313,-0.1832,1.0992,0,0,0
-0.3137,-0.0283,0.981,-3.2519,0.4275,2.0687,0,0,0
-0.3127,-0.0234,0.9866,-3.4733,1.4809,2.5496,0,0,0
-0.3093,-0.0212,0.981,-2.145,2.1603,2.2443,0,0,0
-0.3,-0.0203,0.9783,-1.4198,1.9389,0.9771,0,0,0
-0.3022,-0.0171,0.9631,-0.4656,1.3511,0.0,0,0,0
-0.3069,-0.0137,0.9712,-0.9389,0.3435,-1.1985,0,0,0
-0.3115,-0.0217,0.988,-1.687,0.5649,-1.8244,0,0,0
-0.314,-0.0178,0.9905,-1.9618,1.3206,-1.4122,0,0,0
-0.3176,-0.0208,0.9963,-2.3511,3.0992,-0.916,0,0,0
-0.3208,-0.0176,0.9758,-3.6489,3.5115,0.3817,0,0,0
-0.323,-0.0225,0.9585,-3.5878,2.1908,0.9389,0,0,0
-0.3269,-0.019,0.9512,-2.5954,-0.0992,0.9618,0,0,0
-0.3191,-0.0188,0.9561,-2.1908,-2.7786,-0.313,0,0,0
-0.322,-0.0176,0.9692,-1.0076,-4.3359,-1.3206,0,0,0
-0.3218,-0.0271,0.9868,-0.7328,-3.9771,-1.9466,0,0,0
-0.3228,-0.0234,0.9954,-1.2748,-2.0611,-1.8321,0,0,0
-0.322,-0.0266,1.0059,-1.4046,1.084,-0.8321,0,0,0
-0.3225,-0.0305,0.9917,-1.1374,3.9924,0.4351,0,0,0
-0.324,-0.0261,0.9773,-1.6565,5.2748,1.3893,0,0,0
-0.3242,-0.0251,0.959,-2.0305,3.7405,1.7557,0,0,0
-0.3252,-0.0193,0.95,-1.4733,0.7481,1.2824,0,0,0
-0.3259,-0.0107,0.9524,-0.7176,-1.9466,0.3588,0,0,0
-0.3191,-0.0176,0.9536,-0.7252,-3.9008,-0.5954,0,0,0
-0.3142,-0.0173,0.9602,-1.2901,-4.0534,-1.1832,0,0,0
-0.3137,-0.019,0.9785,-2.1221,-2.626,-0.9771,0,0,0
-0.3142,-0.0225,0.9868,-3.5649,-0.4351,-0.2595,0,0,0
-0.3152,-0.0232,0.9749,-3.4427,0.2519,0.2595,0,0,0
-0.3152,-0.0161,0.9634,-3.0,-0.687,0.5267,0,0,0
-0.3186,-0.0188,0.9639,-2.7023,-1.3588,0.3664,0,0,0
-0.3142,-0.0176,0.9744,-2.0992,-2.0229,-0.4122,0,0,0
-0.3113,-0.0168,0.9761,-1.9771,-1.9542,-0.855,0,0,0
-0.3105,-0.0237,0.9895,-2.2824,-1.3282,-0.8015,0,0,0
-0.3105,-0.0232,0.9976,-3.5038,-0.0611,-0.5573,0,0,0
-0.311,-0.0269,0.9954,-3.4046,0.8473,-0.542,0,0,0
-0.3091,-0.0144,0.9873,-2.0076,1.6718,-0.9847,0,0,0
-0.3123,-0.02,0.98,-0.9847,2.0916,-1.8855,0,0,0
-0.321,-0.0178,0.9761,-0.4733,2.3969,-2.3664,0,0,0
-0.3213,-0.0239,0.9666,-1.1145,1.6183,-2.0687,0,0,0
-0.3257,-0.0212,0.9629,-2.0534,0.3359,-0.855,0,0,0
-0.3303,-0.0234,0.9687,-3.7634,-1.8626,-0.2443,0,0,0
-0.3308,-0.0295,0.9814,-3.1832,-3.1145,0.5191,0,0,0
-0.3284,-0.0315,0.9895,-0.9695,-3.5038,0.626,0,0,0
-0.3225,-0.0313,0.9824,1.3282,-3.7786,0.3969,0,0,0
-0.3137,-0.0212,0.9807,2.3053,-3.2748,-0.5573,0,0,0
-0.3108,-0.0195,0.9766,1.916,-1.8244,-0.916,0,0,0
-0.3108,-0.0178,0.9839,0.4885,0.4809,-0.771,0,0,0
-0.3101,-0.0186,0.968,-0.7863,1.7557,-0.3359,0,0,0
-0.3147,-0.0173,0.9673,-2.9389,1.8473,0.1298,0,0,0
-0.322,-0.0159,0.9451,-3.145,0.2519,-0.1527,0,0,0
-0.3162,-0.0161,0.9565,-1.542,-1.6565,-1.1298,0,0,0
-0.3137,-0.0237,0.9668,-1.0229,-2.4122,-2.2366,0,0,0
-0.3103,-0.0249,0.9707,-1.0992,-2.0687,-2.2519,0,0,0
-0.3149,-0.0298,0.9836,-2.1069,-1.7557,-1.6183,0,0,0
-0.324,-0.0361,0.9834,-3.4122,-1.4122,0.0382,0,0,0
-0.3252,-0.0359,0.9749,-3.3359,-1.8473,1.2366,0,0,0
-0.321,-0.0293,0.9656,-2.3817,-3.1221,1.4427,0,0,0
-0.3159,-0.03,0.9663,-0.1221,-5.5038,1.2519,0,0,0
-0.3125,-0.0161,0.9753,0.1756,-7.2824,0.5954,0,0,0
-0.3049,-0.02,0.9856,0.0992,-7.0534,-0.1145,0,0,0
-0.3025,-0.0181,1.0039,-0.3435,-4.2977,-0.8321,0,0,0
-0.2976,-0.0176,1.0042,-1.145,-0.1679,-1.5954,0,0,0
-0.3005,-0.0142,0.991,-1.687,3.6947,-2.1374,0,0,0
-0.3137,-0.0171,0.9778,-3.2824,5.0153,-2.5878,0,0,0
-0.3247,-0.0217,0.9634,-3.9847,4.3206,-1.8931,0,0,0
-0.3342,-0.0234,0.9468,-4.626,1.3511,-1.1756,0,0,0
-0.3291,-0.0264,0.948,-4.0153,-2.5344,0.0611,0,0,0
-0.3281,-0.0229,0.9541,-2.0916,-6.1679,-0.2748,0,0,0
-0.3186,-0.0178,0.9739,-0.7252,-8.7939,-0.2977,0,0,0
-0.3186,-0.0225,0.9883,0.2137,-9.3511,-0.2519,0,0,0
-0.3083,-0.0242,0.9973,0.2672,-7.916,0.4275,0,0,0
-0.3047,-0.0261,1.0059,0.3817,-4.7481,1.0229,0,0,0
-0.2974,-0.0164,0.9988,-0.4656,-1.1145,1.1832,0,0,0
-0.2939,-0.0173,0.9812,-1.7481,2.2901,0.6565,0,0,0
-0.2888,-0.0132,0.9775,-2.5573,4.2061,-0.1679,0,0,0
-0.291,-0.0098,0.9719,-4.1527,4.7023,-1.4504,0,0,0
-0.2959,-0.0144,0.9673,-4.687,4.4809,-2.4427,0,0,0
-0.3047,-0.0166,0.9607,-4.9237,1.8855,-3.7634,0,0,0
-0.3069,-0.0225,0.9526,-3.7786,-1.4122,-4.7863,0,0,0
-0.3164,-0.0269,0.9619,-2.8015,-4.0382,-5.0153,0,0,0
-0.3201,-0.0249,0.9778,-2.1527,-6.3206,-4.5267,0,0,0
-0.3262,-0.0305,0.9741,-1.7863,-7.3359,-3.2672,0,0,0
-0.3247,-0.0259,0.9783,-2.0,-8.3435,-1.8397,0,0,0
-0.3171,-0.0247,0.9841,-2.9008,-8.8702,-1.1069,0,0,0
-0.3093,-0.0229,0.9875,-2.2214,-8.4656,-1.4046,0,0,0
-0.303,-0.0242,0.9958,-0.5191,-7.0916,-2.0153,0,0,0
-0.3032,-0.0195,1.009,-0.2595,-4.5573,-2.0916,0,0,0
-0.3066,-0.0205,1.0098,-0.3435,-1.1756,-1.7863,0,0,0
-0.3147,-0.0208,1.009,-1.2366,2.1908,-0.8244,0,0,0
-0.3142,-0.0225,0.9829,-1.6718,3.9008,0.1756,0,0,0
-0.3149,-0.0215,0.9646,-2.6565,3.9084,1.1908,0,0,0
-0.3086,-0.0247,0.9524,-4.0763,2.0763,1.5115,0,0,0
-0.3025,-0.0176,0.9563,-4.9695,-0.855,1.0305,0,0,0
-0.2981,-0.0205,0.9617,-4.3053,-3.6794,-0.916,0,0,0
-0.2974,-0.0259,0.9712,-2.8321,-5.374,-1.8779,0,0,0
-0.2983,-0.0234,0.978,-1.7786,-6.771,-2.1374,0,0,0
-0.3,-0.0293,0.9753,-1.1985,-8.1985,-1.916,0,0,0
-0.3037,-0.0244,0.9722,-0.7481,-9.8855,-1.6718,0,0,0
-0.3005,-0.0183,0.957,0.5115,-12.0458,-2.3588,0,0,0
-0.2979,-0.0269,0.9512,-0.2137,-15.8931,-2.6794,0,0,0
-0.302,-0.0222,0.9465,-0.4427,-19.9924,-2.9084,0,0,0
-0.2993,-0.0315,0.9338,-0.084,-25.6336,-2.5649,0,0,0
-0.2954,-0.02,0.9077,-0.771,-33.7099,-2.0687,0,0,0
-0.2954,-0.0205,0.8711,-1.5496,-42.7023,-2.5878,0,0,0
-0.293,-0.0151,0.8496,-3.9695,-52.6412,-3.7939,0,0,0
-0.2947,-0.0256,0.832,-6.3359,-63.6718,-3.5954,0,0,0
-0.2822,-0.0225,0.8442,-8.8855,-74.6107,-2.6489,0,0,0
-0.2705,-0.0447,0.8909,-10.5725,-82.374,-0.0916,0,0,0
-0.2502,-0.0508,0.9619,-13.6107,-84.3511,2.9389,0,0,0
-0.2241,-0.0452,1.0129,-15.4733,-80.7786,5.7176,0,0,0
-0.2061,-0.0432,1.0408,-14.9847,-73.3359,9.6641,0,0,0
-0.1816,-0.0552,1.0703,-13.5267,-64.8702,11.5649,0,0,0
-0.1472,-0.0232,1.0786,-15.4962,-58.1145,13.6489,0,0,0
-0.1221,-0.0471,1.0779,-13.1832,-46.9008,11.2443,0,0,0
-0.1189,-0.0544,1.0254,-10.7481,-46.0382,10.3664,0,0,0
-0.1108,-0.0322,1.0205,-7.3435,-44.855,7.3893,0,0,0
-0.1069,-0.0229,1.0308,-8.1832,-44.4351,3.8015,0,0,0
-0.0957,-0.0386,1.0476,-8.5802,-42.7252,1.9924,0,0,0
-0.093,-0.041,1.072,-9.8855,-40.313,2.4046,0,0,0
-0.0845,-0.0359,1.0845,-9.7328,-36.458,2.8855,0,0,0
-0.0691,-0.043,1.0913,-8.5878,-32.4504,3.0382,0,0,0
-0.052,-0.0339,1.0791,-6.2748,-28.0382,1.8855,0,0,0
-0.0464,-0.0476,1.0593,-1.0916,-27.0763,0.8931,0,0,0
-0.0454,-0.0212,1.0247,1.3588,-28.0534,-2.3511,0,0,0
-0.0427,-0.0088,1.0583,-3.2137,-27.3282,-5.0076,0,0,0
-0.0525,-0.0437,1.0947,-3.9618,-24.5496,-5.5954,0,0,0
-0.0518,-0.0684,1.1304,-2.1756,-15.5573,-5.1985,0,0,0
-0.0442,-0.0557,1.1091,-0.916,-5.7023,-3.4504,0,0,0
-0.042,-0.0581,1.0962,-1.9847,1.3588,-1.5344,0,0,0
-0.0454,-0.0437,1.0813,-7.3359,5.771,-0.4809,0,0,0
-0.0586,-0.0544,1.085,-6.7176,6.5496,-1.3359,0,0,0
-0.0649,-0.064,1.0732,-2.3053,4.0305,-2.2748,0,0,0
-0.0615,-0.0752,1.0496,1.1069,0.5649,-2.8931,0,0,0
-0.0776,-0.062,1.0239,6.6107,-3.8779,-4.2061,0,0,0
-0.0752,-0.0635,1.0261,8.4809,-5.5725,-5.5725,0,0,0
-0.0759,-0.063,1.0349,7.0229,-4.687,-6.1221,0,0,0
-0.0718,-0.0483,1.0503,4.6489,-0.0458,-5.7099,0,0,0
-0.0667,-0.0659,1.0312,2.0534,4.4275,-2.8855,0,0,0
-0.0762,-0.0569,1.0132,0.3435,7.6412,0.5954,0,0,0
-0.0786,-0.0425,1.0188,-2.2672,10.0763,2.4809,0,0,0
-0.0732,-0.0408,1.0122,-4.4046,9.3206,2.855,0,0,0
-0.071,-0.0376,1.0198,-4.4275,7.1679,2.8092,0,0,0
-0.0588,-0.0464,1.0403,-2.5802,6.0458,2.0076,0,0,0
-0.0542,-0.0488,1.0503,1.7786,5.2901,0.8779,0,0,0
-0.0483,-0.0457,1.0532,5.3282,5.2672,-0.9084,0,0,0
-0.0591,-0.0417,1.0554,7.3969,6.7634,-2.1832,0,0,0
-0.0579,-0.0447,1.0232,8.2977,7.7786,-3.4809,0,0,0
-0.062,-0.0381,1.0022,7.1069,7.4962,-3.8855,0,0,0
-0.0784,-0.0295,0.999,4.7786,7.2214,-4.5725,0,0,0
-0.0881,-0.0403,1.0027,1.9618,6.458,-3.9008,0,0,0
-0.0925,-0.0374,1.0056,0.1679,5.626,-2.2595,0,0,0
-0.0955,-0.0383,1.0195,-0.3359,6.0458,-0.542,0,0,0
-0.0962,-0.0391,1.0286,-0.7634,6.5267,0.458,0,0,0
-0.0984,-0.0405,1.0339,-1.0687,7.2519,1.5115,0,0,0
-0.0896,-0.0403,1.0286,-0.1374,6.0382,1.9618,0,0,0
-0.0889,-0.0315,1.0203,1.1145,3.8092,1.3282,0,0,0
-0.0881,-0.0327,1.0125,3.5496,1.4198,-0.4427,0,0,0
-0.0859,-0.03,1.0322,3.916,1.7176,-1.9771,0,0,0
-0.0886,-0.0293,1.0322,2.7939,3.4198,-2.6641,0,0,0
-0.0962,-0.0266,1.0347,0.5115,6.9695,-2.4122,0,0,0
-0.1006,-0.0347,1.0327,-1.8473,10.1069,-1.0229,0,0,0
-0.1099,-0.032,1.0229,-3.5954,12.084,0.3282,0,0,0
-0.1086,-0.0378,1.0215,-4.3282,12.2061,1.626,0,0,0
-0.1099,-0.042,1.0,-2.9389,9.6031,2.3511,0,0,0
-0.1135,-0.0195,1.0,-0.5573,4.7176,1.4122,0,0,0
-0.1106,-0.0295,1.0042,1.4809,0.9466,-0.0305,0,0,0
-0.1006,-0.0342,1.0095,3.084,-2.2443,-0.7634,0,0,0
-0.1067,-0.0276,1.0259,2.4656,-2.855,-1.1145,0,0,0
-0.103,-0.0298,1.0403,0.9847,-0.6412,-0.7252,0,0,0
-0.0996,-0.0352,1.033,0.0763,2.2672,0.0611,0,0,0
-0.1047,-0.0273,1.0254,-1.0611,4.1145,0.7252,0,0,0
-0.1042,-0.0293,1.0166,-2.5191,3.6031,0.6947,0,0,0
-0.1067,-0.0342,1.0193,-3.4656,3.0611,0.8092,0,0,0
-0.1111,-0.0435,1.0146,-3.771,1.8473,1.084,0,0,0
-0.1187,-0.0415,1.0137,-3.8931,0.4275,1.7099,0,0,0
-0.1167,-0.0488,1.0278,-3.6947,0.2748,2.2672,0,0,0
-0.1189,-0.0461,1.0222,-3.2824,-0.2519,4.1679,0,0,0
-0.1204,-0.0483,1.0142,-3.4198,-0.4198,6.229,0,0,0
-0.1206,-0.0493,1.0132,-3.7252,-1.2748,8.4656,0,0,0
-0.1245,-0.0566,1.0229,-4.4198,-1.1679,11.3511,0,0,0
-0.1294,-0.0581,1.0342,-5.1679,-0.2061,15.3359,0,0,0
-0.1438,-0.0698,1.0286,-6.1527,0.916,20.1374,0,0,0
-0.1504,-0.0737,1.02,-8.7557,1.4885,25.0687,0,0,0
-0.1594,-0.0706,1.0117,-13.2748,2.0305,30.8092,0,0,0
-0.1548,-0.084,1.019,-17.9084,2.9771,37.3511,0,0,0
-0.1543,-0.0876,1.0181,-20.8473,4.0611,43.9618,0,0,0
-0.1528,-0.0901,1.0225,-24.1832,5.6183,49.1908,0,0,0
-0.1538,-0.092,0.9858,-26.6107,5.3359,52.9618,0,0,0
-0.1746,-0.0938,0.947,-29.1908,2.7481,55.3893,0,0,0
-0.1802,-0.0872,0.9478,-34.5802,-1.1298,57.7328,0,0,0
-0.1819,-0.1001,0.9941,-41.3893,-2.6947,61.2748,0,0,0
-0.1746,-0.1245,1.0024,-44.0992,-2.3282,65.4122,0,0,0
-0.1487,-0.1248,0.9927,-42.1069,-2.5191,69.687,0,0,0
-0.1245,-0.1006,1.0168,-41.4656,-2.9008,72.2824,0,0,0
-0.0967,-0.0957,1.0344,-41.7023,-2.1527,72.1679,0,0,0
-0.0872,-0.0981,1.0149,-40.8092,-2.7634,70.2366,0,0,0
-0.0796,-0.1099,1.0012,-38.4122,-4.7405,67.3511,0,0,0
-0.0903,-0.0808,0.9817,-37.3511,-9.5802,62.2137,0,0,0
-0.0703,-0.061,1.0693,-37.8931,-11.5878,56.1985,0,0,0
-0.0691,-0.126,1.0657,-31.8168,-15.2214,55.1527,0,0,0
-0.0625,-0.0881,1.0784,-25.5344,-13.2977,51.2061,0,0,0
-0.0632,-0.113,1.0581,-20.0763,-12.5725,46.8092,0,0,0
-0.0786,-0.0984,1.0024,-18.0763,-14.1679,43.5038,0,0,0
-0.0825,-0.1038,1.0146,-15.0382,-16.0076,39.9008,0,0,0
-0.0981,-0.1052,1.0188,-15.7863,-18.084,37.0687,0,0,0
-0.1069,-0.1099,1.03,-15.9695,-18.4885,36.0229,0,0,0
-0.0891,-0.1252,1.0513,-14.0763,-16.0,35.9008,0,0,0
-0.0754,-0.1189,1.0713,-13.687,-10.7176,35.4198,0,0,0
-0.0718,-0.1182,1.0613,-11.8397,-4.9389,34.4198,0,0,0
-0.0718,-0.1035,1.0464,-10.5038,-0.5191,32.2519,0,0,0
-0.0723,-0.0967,1.0347,-8.9847,0.145,28.9924,0,0,0
-0.0735,-0.094,1.0176,-6.7405,-0.5649,24.0153,0,0,0
-0.072,-0.1013,1.0098,-4.0916,-2.771,18.6489,0,0,0
-0.0637,-0.0999,1.0049,-0.6718,-5.1221,12.8931,0,0,0
-0.0654,-0.1055,1.0042,0.8931,-6.3206,8.0153,0,0,0
-0.0728,-0.1011,1.012,1.5573,-6.1679,4.9313,0,0,0
-0.0828,-0.1016,1.0039,1.4351,-4.8855,2.4733,0,0,0
-0.0928,-0.1082,1.0112,1.9695,-3.1145,2.2214,0,0,0
-0.1003,-0.1145,0.9875,1.3359,-2.6183,2.6794,0,0,0
-0.1082,-0.1116,0.9937,-0.9313,-3.3435,3.5878,0,0,0
-0.1067,-0.1106,1.0127,-2.1756,-3.1221,4.0763,0,0,0
-0.1001,-0.1162,1.0059,-1.4733,-2.7405,4.4809,0,0,0
-0.0928,-0.1045,0.9932,-1.4046,-3.3435,4.3206,0,0,0
-0.0903,-0.1047,1.0081,-2.4733,-3.6183,3.5267,0,0,0
-0.0862,-0.106,1.03,-3.2443,-1.9847,2.3588,0,0,0
-0.0837,-0.1035,1.0425,-3.8168,0.1374,1.7099,0,0,0
-0.0789,-0.1165,1.0369,-3.2137,2.2366,0.8473,0,0,0
-0.0852,-0.1208,1.0178,-1.9924,2.4046,0.3359,0,0,0
-0.0984,-0.1187,1.0212,-1.374,1.1985,-0.1756,0,0,0
-0.1016,-0.1187,1.0208,-0.4809,-0.4351,-0.5115,0,0,0
-0.0986,-0.123,1.0198,2.1985,-2.4733,-1.0153,0,0,0
-0.0891,-0.1201,1.0168,3.0916,-3.8779,-1.3435,0,0,0
-0.0891,-0.1279,1.0183,3.5649,-4.9008,-2.1985,0,0,0
-0.0867,-0.1184,1.0232,3.9008,-4.5191,-3.1069,0,0,0
-0.0894,-0.1223,1.0242,2.5496,-3.4198,-3.3053,0,0,0
-0.0876,-0.1199,1.0164,0.7405,-2.3359,-3.6718,0,0,0
-0.0967,-0.1189,1.0229,-0.5344,-1.6565,-3.0382,0,0,0
-0.1001,-0.1189,1.0254,-1.6412,-0.855,-2.6183,0,0,0
-0.1038,-0.1228,1.0242,-1.8168,0.5191,-2.0076,0,0,0
-0.1001,-0.126,1.0276,-1.3435,1.9924,-1.1221,0,0,0
-0.0874,-0.1208,1.0237,-2.1069,3.3511,-0.626,0,0,0
-0.0886,-0.1196,1.0183,-3.4809,3.9313,-1.2443,0,0,0
-0.0952,-0.123,1.0195,-4.916,4.0534,-1.9237,0,0,0
-0.0986,-0.1233,1.0273,-3.6794,2.6183,-2.6947,0,0,0
-0.1006,-0.1252,1.0354,-1.7405,0.687,-3.8244,0,0,0
-0.0974,-0.1301,1.0298,0.6565,-0.4122,-4.3817,0,0,0
-0.0967,-0.1311,1.022,2.8244,-1.2748,-5.1527,0,0,0
-0.1028,-0.125,1.0205,3.4046,-1.5344,-5.4504,0,0,0
-0.1018,-0.126,1.0139,2.687,-1.145,-5.9466,0,0,0
-0.0989,-0.1191,1.0198,0.6947,-0.9466,-5.6031,0,0,0
-0.1045,-0.125,1.0239,-1.0229,0.7557,-5.2137,0,0,0
-0.1055,-0.1233,1.0293,-1.9618,3.8473,-4.0458,0,0,0
-0.1033,-0.123,1.0132,-2.2595,4.8855,-3.1832,0,0,0
-0.1008,-0.1204,1.0142,-1.8702,4.2672,-3.0153,0,0,0
-0.0879,-0.115,1.0215,0.2366,2.9008,-3.9008,0,0,0
-0.0742,-0.1074,1.0129,2.4427,0.9695,-6.6794,0,0,0
-0.0603,-0.0874,1.0283,3.8626,-0.145,-11.0382,0,0,0
-0.0405,-0.0872,1.0408,4.9847,0.1908,-15.771,0,0,0
-0.0349,-0.0833,1.0625,5.542,3.1985,-20.4351,0,0,0
-0.0342,-0.0823,1.0769,7.0611,6.771,-25.5114,0,0,0
-0.0337,-0.0811,1.0642,9.771,10.0229,-29.5954,0,0,0
-0.0378,-0.0803,1.0625,12.6641,11.5191,-34.1374,0,0,0
-0.0439,-0.0786,1.0559,15.7176,11.8473,-38.2443,0,0,0
-0.0437,-0.0754,1.0466,18.4885,12.0229,-42.5802,0,0,0
-0.0503,-0.0757,1.0361,21.4275,11.5802,-46.9618,0,0,0
-0.0518,-0.0569,1.0244,23.6107,10.0076,-52.0076,0,0,0
-0.0574,-0.0608,1.0278,24.6947,8.8626,-56.9008,0,0,0
-0.051,-0.0571,1.0349,25.3893,8.8244,-60.7481,0,0,0
-0.063,-0.0603,1.0618,25.7557,10.3893,-63.7328,0,0,0
-0.0811,-0.064,1.0759,27.2137,13.8473,-65.1985,0,0,0
-0.0981,-0.074,1.0459,30.1221,16.6107,-65.6565,0,0,0
-0.1086,-0.0632,1.0208,29.2443,17.8626,-65.5802,0,0,0
-0.1196,-0.0747,1.019,30.5344,18.1603,-65.7786,0,0,0
-0.1174,-0.0566,1.0068,30.5267,17.6947,-66.626,0,0,0
-0.1204,-0.0657,0.9978,30.8015,16.5191,-67.8931,0,0,0
-0.1431,-0.0662,0.9839,30.9771,14.4809,-67.397,0,0,0
-0.1633,-0.0735,0.9604,31.2366,10.7252,-65.1145,0,0,0
-0.1809,-0.0762,0.927,30.7023,6.3282,-62.145,0,0,0
-0.1936,-0.0771,0.928,26.0305,1.8931,-58.0916,0,0,0
-0.1951,-0.0791,0.9331,20.6565,-0.9389,-53.4885,0,0,0
-0.2031,-0.0779,0.9443,15.7863,-1.8092,-47.4275,0,0,0
-0.2102,-0.0767,0.9475,11.4122,-1.2061,-41.3664,0,0,0
-0.2051,-0.0813,0.9446,5.7252,-0.5344,-34.3664,0,0,0
-0.2109,-0.0862,0.9612,-0.687,0.2214,-27.1679,0,0,0
-0.2012,-0.0889,0.9592,-6.3053,0.4656,-20.6565,0,0,0
-0.198,-0.0972,0.9709,-9.6031,-0.2901,-15.1298,0,0,0
-0.1855,-0.0945,0.9705,-11.8168,-2.2137,-10.9847,0,0,0
-0.1772,-0.0913,0.9971,-11.6183,-4.4275,-7.687,0,0,0
-0.1592,-0.0942,1.0095,-9.084,-7.5954,-5.4046,0,0,0
-0.1418,-0.084,1.0298,-6.0916,-10.7786,-4.3435,0,0,0
-0.1318,-0.0835,1.041,-2.9771,-12.229,-4.9542,0,0,0
-0.1243,-0.0798,1.0435,0.5115,-13.1527,-5.5878,0,0,0
-0.115,-0.0757,1.0312,3.4733,-14.2061,-6.7939,0,0,0
-0.1172,-0.0735,1.0244,4.1298,-14.9084,-7.855,0,0,0
-0.1245,-0.0767,1.0391,3.6718,-14.1298,-7.6641,0,0,0
-0.1179,-0.0759,1.0347,2.1069,-12.9924,-6.0458,0,0,0
-0.123,-0.0713,1.0437,1.5038,-11.6107,-4.0611,0,0,0
-0.1133,-0.0654,1.0461,0.3435,-10.1603,-1.8931,0,0,0
-0.1045,-0.0598,1.0339,0.3359,-10.1756,-0.9084,0,0,0
-0.0901,-0.0542,1.0327,0.9313,-10.8244,-0.6947,0,0,0
-0.083,-0.0437,1.0432,0.7328,-10.4885,-1.7405,0,0,0
-0.0789,-0.0461,1.042,0.8626,-9.9466,-2.8855,0,0,0
-0.073,-0.0415,1.0371,0.0458,-8.4885,-3.9389,0,0,0
-0.0759,-0.0391,1.043,-1.8092,-6.4351,-4.4656,0,0,0
-0.0825,-0.0427,1.0496,-3.4046,-4.1374,-4.5038,0,0,0
-0.0942,-0.0471,1.0498,-4.4046,-1.3664,-3.084,0,0,0
-0.1011,-0.0496,1.0525,-5.5802,0.1298,-1.2061,0,0,0
-0.095,-0.0513,1.0471,-5.1679,1.1679,0.2214,0,0,0
-0.0845,-0.0364,1.0342,-2.5649,-0.5267,-0.4046,0,0,0
-0.082,-0.0391,1.0415,-0.6947,-3.2443,-1.687,0,0,0
-0.0745,-0.0352,1.0383,0.4504,-4.9771,-3.9542,0,0,0
-0.0771,-0.0347,1.0452,1.7023,-5.8702,-6.1145,0,0,0
-0.0764,-0.0393,1.0618,2.7634,-4.2519,-7.1832,0,0,0
-0.0845,-0.0369,1.0613,2.374,-0.2901,-7.7634,0,0,0
-0.0879,-0.0393,1.05,1.7099,3.9924,-6.8855,0,0,0
-0.0989,-0.0381,1.0239,0.8168,5.916,-5.0,0,0,0
-0.0925,-0.0251,1.0088,-0.8321,4.9924,-3.916,0,0,0
-0.0901,-0.0288,1.0103,-1.4275,1.5725,-4.2519,0,0,0
-0.0872,-0.0269,1.0107,-0.6794,-1.3053,-5.771,0,0,0
-0.0908,-0.0337,1.0254,1.4122,-2.5878,-7.5344,0,0,0
-0.0935,-0.0366,1.0295,1.5649,-1.5878,-8.0611,0,0,0
-0.0906,-0.0361,1.03,0.4046,0.5725,-7.7099,0,0,0
-0.0916,-0.0364,1.0234,-0.3282,1.8626,-7.5496,0,0,0
-0.0894,-0.0334,1.0183,-1.7252,3.0916,-7.6794,0,0,0
-0.0911,-0.0364,1.0095,-1.8626,2.8626,-7.8397,0,0,0
-0.0977,-0.04,1.0205,-1.5954,2.626,-8.1603,0,0,0
-0.1055,-0.0396,1.0176,-0.8626,1.5267,-7.9084,0,0,0
-0.1079,-0.0415,1.0046,0.7557,0.5725,-7.2977,0,0,0
-0.1079,-0.041,0.9941,1.2137,-1.1221,-6.4122,0,0,0
-0.1045,-0.0352,1.0022,0.2748,-1.9237,-6.0687,0,0,0
-0.0974,-0.0278,1.0017,-1.3893,-2.6031,-5.8092,0,0,0
-0.0894,-0.0344,1.0112,-2.3053,-2.8092,-6.1679,0,0,0
-0.0862,-0.0317,1.0037,-2.0229,-2.7786,-6.8626,0,0,0
-0.0894,-0.0344,1.0122,-0.8931,-2.8931,-7.4351,0,0,0
-0.0933,-0.0334,1.0098,0.0229,-3.2214,-7.6031,0,0,0
-0.095,-0.0388,1.0364,-1.0687,-2.2214,-7.0763,0,0,0
-0.0962,-0.0442,1.033,-2.2977,-1.4809,-5.9313,0,0,0
-0.0908,-0.0405,1.0261,-2.8015,-1.7481,-5.1985,0,0,0
-0.0828,-0.0408,1.0217,-0.7634,-2.8779,-5.8244,0,0,0
-0.0808,-0.0269,1.0315,-0.3893,-3.8092,-7.0534,0,0,0
-0.083,-0.0413,1.0425,-0.5496,-2.8931,-8.4046,0,0,0
-0.0876,-0.0459,1.0479,-1.0,-1.5115,-8.6565,0,0,0
-0.0972,-0.0527,1.0417,-1.4885,-0.2901,-7.4656,0,0,0
-0.1018,-0.0479,1.043,-1.8244,0.5344,-6.3282,0,0,0
-0.1028,-0.052,1.0347,-2.0,1.313,-5.4351,0,0,0
-0.1018,-0.0564,1.0171,-1.2824,0.1985,-5.2061,0,0,0
-0.0989,-0.0513,1.0049,0.3664,-2.145,-4.6336,0,0,0
-0.105,-0.0469,1.0103,0.5802,-4.916,-4.313,0,0,0
-0.1003,-0.0488,1.0122,1.229,-6.9466,-3.8244,0,0,0
-0.0906,-0.0481,1.0261,1.2901,-7.4122,-2.9389,0,0,0
-0.0815,-0.0417,1.0327,0.2977,-5.9008,-3.1832,0,0,0
-0.0735,-0.0417,1.0259,-1.9313,-4.2672,-3.2595,0,0,0
-0.071,-0.042,1.041,-3.6641,-2.1908,-3.4962,0,0,0
-0.0786,-0.0481,1.0469,-4.2672,-0.3053,-3.6489,0,0,0
-0.0801,-0.0508,1.0439,-2.687,0.4962,-3.1374,0,0,0
-0.0896,-0.0496,1.0422,-0.8092,0.4275,-2.3206,0,0,0
-0.0896,-0.0417,1.0437,-0.6489,0.3817,-2.1908,0,0,0
-0.085,-0.0435,1.0378,-0.5725,0.7099,-1.5725,0,0,0
-0.0815,-0.0457,1.0378,0.542,0.6031,-1.1374,0,0,0
-0.0745,-0.0371,1.0256,0.8092,1.5496,-1.3893,0,0,0
-0.0771,-0.0391,1.0181,0.542,2.3206,-2.4733,0,0,0
-0.0767,-0.0364,1.0188,0.5191,2.0305,-3.145,0,0,0
-0.0845,-0.0327,1.012,-0.229,1.1145,-3.0382,0,0,0
-0.0918,-0.0359,1.0244,-0.9924,0.2214,-3.3664,0,0,0
-0.0952,-0.0393,1.0271,-0.2366,-0.3359,-2.6489,0,0,0
-0.0945,-0.0383,1.0232,0.0153,0.1603,-2.0763,0,0,0
-0.093,-0.0396,1.0173,-2.5725,0.4275,-1.4427,0,0,0
-0.0979,-0.0352,1.0259,-2.6947,1.313,-1.2214,0,0,0
-0.0896,-0.0413,1.0422,-1.6412,3.1679,-1.0992,0,0,0
-0.093,-0.0422,1.0286,-1.855,3.7634,-0.1985,0,0,0
-0.0916,-0.0339,1.0083,-2.0534,2.6794,0.1374,0,0,0
-0.0884,-0.0378,1.0071,-0.9695,0.0458,-0.374,0,0,0
-0.0911,-0.0352,1.0254,-0.542,-1.1221,-1.2672,0,0,0
-0.0854,-0.0381,1.0261,-0.0305,-0.2977,-1.3282,0,0,0
-0.0923,-0.0344,1.0273,0.4275,0.2977,-0.8321,0,0,0
-0.094,-0.0332,1.0283,-0.4046,1.5267,-0.0382,0,0,0
-0.0974,-0.0457,1.0352,-1.5802,3.3359,0.855,0,0,0
-0.0962,-0.0366,1.0159,-2.0382,5.5496,1.1985,0,0,0
-0.0928,-0.0359,1.0288,-2.9542,7.5573,1.7939,0,0,0
-0.0862,-0.0327,1.0261,-4.6641,8.6183,1.4885,0,0,0
-0.0979,-0.0398,1.0417,-4.7939,10.7863,1.6718,0,0,0
-0.105,-0.0488,1.075,-4.5954,15.8015,1.3817,0,0,0
-0.0957,-0.033,1.0623,-5.9237,22.0992,2.3206,0,0,0
-0.0815,-0.0403,1.0298,-6.1221,25.1298,2.6031,0,0,0
-0.0908,-0.0315,1.0259,-7.0,25.7939,3.3435,0,0,0
-0.103,-0.0352,1.0266,-6.374,24.3893,2.3969,0,0,0
-0.1089,-0.0359,1.0305,-4.855,22.9084,1.2443,0,0,0
-0.1194,-0.0579,1.0171,-3.1908,19.9389,-0.2061,0,0,0
-0.1204,-0.0461,1.0305,1.6412,17.4046,-0.4198,0,0,0
-0.1284,-0.0464,1.0388,4.2366,16.6565,-0.3817,0,0,0
-0.1284,-0.0381,1.0413,4.5191,16.9924,-0.2672,0,0,0
-0.1357,-0.0469,1.0342,5.4962,17.7023,1.3969,0,0,0
-0.1416,-0.0388,1.0144,6.4122,16.916,2.0,0,0,0
-0.1477,-0.0276,1.0068,5.6336,16.0763,1.1603,0,0,0
-0.1611,-0.0251,1.0022,3.1527,15.0534,0.7481,0,0,0
-0.1682,-0.0364,1.0212,0.1985,15.7786,1.0153,0,0,0
-0.166,-0.0388,1.0295,-1.2824,17.5191,2.7634,0,0,0
-0.1729,-0.0408,1.0244,-0.8702,17.7634,4.8473,0,0,0
-0.1667,-0.0366,1.022,-0.2061,16.5878,6.0687,0,0,0
-0.1636,-0.0183,0.9954,0.9695,13.6947,4.9847,0,0,0
-0.1597,-0.0186,0.9946,2.7863,10.2443,2.2366,0,0,0
-0.1572,-0.02,0.9932,2.5573,6.5496,0.7481,0,0,0
-0.1667,-0.0181,0.9946,1.3053,3.855,-0.9924,0,0,0
-0.1765,-0.0303,1.0049,1.2061,2.2595,-2.3664,0,0,0
-0.1868,-0.0278,1.01,0.7481,2.5573,-2.6947,0,0,0
-0.1877,-0.0381,1.0222,-0.229,4.9008,-1.855,0,0,0
-0.1899,-0.0405,1.0142,-2.1145,6.4733,0.5954,0,0,0
-0.1917,-0.0359,0.9968,-2.687,6.5496,2.0992,0,0,0
-0.1924,-0.031,0.9951,-1.5878,4.7405,2.5267,0,0,0
-0.189,-0.0266,1.0027,-1.1527,3.7634,1.9924,0,0,0
-0.179,-0.0278,1.0095,-1.1756,2.8473,1.3435,0,0,0
-0.1772,-0.0222,1.012,-1.7863,3.1679,1.1908,0,0,0
-0.1768,-0.0281,1.0122,-2.4656,4.0916,1.6183,0,0,0
-0.1797,-0.0244,1.0173,-3.2061,4.5496,2.1985,0,0,0
-0.1765,-0.0273,1.0144,-3.1069,4.5267,2.084,0,0,0
-0.1816,-0.0269,1.0171,-1.5573,4.687,1.5267,0,0,0
-0.1843,-0.0234,1.0022,-1.4885,4.1527,0.8626,0,0,0
-0.1885,-0.0244,1.0037,-2.0229,3.5038,0.771,0,0,0
-0.1899,-0.0322,1.0176,-1.8931,3.5496,1.3053,0,0,0
-0.187,-0.0261,1.0193,-1.0,4.7405,1.3893,0,0,0
-0.1821,-0.0291,1.0132,-0.8779,5.0305,2.3282,0,0,0
-0.1777,-0.022,1.002,-1.2748,4.3282,2.2519,0,0,0
-0.1787,-0.021,1.0024,-0.8779,3.3893,1.1374,0,0,0
-0.1763,-0.021,0.9944,-0.1832,2.3588,-0.3053,0,0,0
-0.1799,-0.022,0.9976,-0.0382,0.687,-0.9847,0,0,0
-0.1829,-0.0225,1.0027,-0.0382,0.313,-0.6336,0,0,0
-0.1853,-0.021,1.0142,-0.2672,0.6489,-0.3969,0,0,0
-0.1802,-0.0247,1.0105,-0.4656,2.6489,0.3664,0,0,0
-0.1787,-0.0208,1.0056,-1.9389,4.1756,0.916,0,0,0
-0.1819,-0.0227,1.001,-3.7634,4.7863,1.3359,0,0,0
-0.1912,-0.0266,0.9976,-3.7405,3.771,0.6489,0,0,0
-0.1943,-0.0291,1.0034,-3.4351,1.5649,-0.1756,0,0,0
-0.1973,-0.0327,1.0093,-2.3817,-0.1985,0.1298,0,0,0
-0.2029,-0.0281,1.0242,-1.2443,-0.9084,0.1069,0,0,0
-0.2,-0.0315,1.0342,0.1756,0.458,0.542,0,0,0
-0.1975,-0.033,1.0215,0.8321,2.5725,0.8779,0,0,0
-0.187,-0.0168,1.0142,0.2443,4.5115,1.313,0,0,0
-0.189,-0.019,1.0042,-1.5038,5.1527,0.6794,0,0,0
-0.198,-0.0183,1.0002,-3.2137,4.3588,-0.2595,0,0,0
-0.2092,-0.0222,1.0015,-3.8321,2.855,-0.4656,0,0,0
-0.2102,-0.0254,1.0093,-3.5267,1.3359,-0.2443,0,0,0
-0.209,-0.0347,1.0186,-2.1145,-0.0687,-0.1679,0,0,0
-0.2021,-0.0303,1.0168,-1.4122,-0.1832,0.8473,0,0,0
-0.1975,-0.0276,1.0181,-0.9924,-1.0076,1.626,0,0,0
-0.1953,-0.0193,1.0154,0.5878,-2.3664,1.7634,0,0,0
-0.1904,-0.0125,1.0066,2.6412,-3.9847,0.5954,0,0,0
-0.1824,-0.011,0.9927,3.4733,-5.2748,-0.1756,0,0,0
-0.176,-0.0061,0.9885,3.1145,-7.626,-1.0076,0,0,0
-0.1746,-0.0085,0.959,2.1145,-10.5573,-2.0382,0,0,0
-0.177,-0.0051,0.9307,0.8397,-13.8702,-3.7939,0,0,0
-0.1831,-0.0044,0.9211,-2.3893,-18.1603,-5.2748,0,0,0
-0.1953,-0.0115,0.9155,-7.4962,-22.6794,-4.9771,0,0,0
-0.2031,-0.0146,0.9465,-11.9313,-25.8855,-4.6031,0,0,0
-0.2004,-0.0247,0.9839,-16.374,-26.458,-3.0763,0,0,0
-0.1982,-0.0525,1.0071,-17.3588,-24.8015,0.1145,0,0,0
-0.1863,-0.0491,1.0237,-15.0916,-23.6183,3.2214,0,0,0
-0.1748,-0.0522,1.051,-12.0076,-21.2824,4.2748,0,0,0
-0.1594,-0.042,1.0664,-8.9618,-17.3206,4.2443,0,0,0
-0.1494,-0.0454,1.0559,-4.7176,-13.5954,3.084,0,0,0
-0.1418,-0.0393,1.0217,-1.5802,-11.8092,2.1756,0,0,0
-0.136,-0.0315,1.0056,-1.6412,-12.8244,0.3893,0,0,0
-0.1387,-0.0242,0.9839,-3.7786,-15.2137,-1.2824,0,0,0
-0.1406,-0.0212,0.9976,-6.0305,-17.1756,-3.5191,0,0,0
-0.1443,-0.0295,0.9966,-7.9008,-18.3817,-4.1985,0,0,0
-0.1521,-0.0637,1.0266,-5.2595,-19.8015,-2.3435,0,0,0
-0.1482,-0.0449,1.0405,-1.2061,-17.7099,-0.1832,0,0,0
-0.1387,-0.0342,1.0583,-0.5344,-14.4351,1.0534,0,0,0
-0.1323,-0.0291,1.0706,-3.1145,-9.7863,2.3053,0,0,0
-0.1135,-0.0444,1.0635,-2.9313,-6.1832,3.855,0,0,0
-0.1013,-0.0374,1.054,-1.5802,-3.2061,3.2366,0,0,0
-0.0972,-0.0254,1.0222,0.0229,-4.4733,0.3206,0,0,0
-0.1062,-0.0186,1.0142,-0.4427,-7.6031,-3.2214,0,0,0
-0.1196,-0.0215,1.0437,-2.4198,-9.2672,-5.1221,0,0,0
-0.1218,-0.0354,1.0674,-3.5038,-7.5344,-4.5496,0,0,0
-0.1267,-0.0496,1.083,-1.8015,-3.9084,-2.3969,0,0,0
-0.1335,-0.0454,1.074,-1.313,-0.1603,0.0687,0,0,0
-0.1238,-0.0386,1.0464,0.4275,0.8473,0.855,0,0,0
-0.1238,-0.0432,1.0354,1.6565,0.3664,0.3359,0,0,0
-0.1196,-0.0337,1.0325,1.374,0.6718,-0.9084,0,0,0
-0.1072,-0.0417,1.0205,0.0076,-0.3053,-2.0229,0,0,0
-0.1167,-0.0496,1.0149,-0.4275,-2.0458,-2.084,0,0,0
-0.1208,-0.0505,1.0229,-0.0992,-2.4504,-3.1298,0,0,0
-0.1238,-0.0505,1.0117,0.8473,-2.4427,-3.4733,0,0,0
-0.1277,-0.0437,1.0186,0.5725,-2.145,-3.5954,0,0,0
-0.1309,-0.0315,1.0044,-0.542,-1.2519,-2.8702,0,0,0
-0.1426,-0.061,1.0303,-1.8855,-0.1985,-1.0,0,0,0
-0.1284,-0.0415,1.0271,-4.3969,0.3817,0.0229,0,0,0
-0.1282,-0.0449,1.0222,-3.1374,-0.2824,0.7023,0,0,0
-0.1252,-0.0396,1.0166,-2.1603,-0.7939,-0.145,0,0,0
-0.1235,-0.0403,1.0208,-1.2672,-1.7252,-0.9847,0,0,0
-0.124,-0.0364,1.0144,-1.313,-3.0382,-1.0153,0,0,0
-0.1213,-0.0359,1.0271,-1.7252,-2.5725,-0.7557,0,0,0
-0.1199,-0.0398,1.0381,-1.3969,-0.9924,-0.1985,0,0,0
-0.1135,-0.0425,1.0312,-0.2214,0.7328,0.2214,0,0,0
-0.1165,-0.0349,1.0144,0.313,1.0076,0.4046,0,0,0
-0.114,-0.0293,1.0032,-1.0153,-0.2901,-0.1374,0,0,0
-0.1138,-0.0339,0.9973,-1.7405,-2.2977,-0.7557,0,0,0
-0.1147,-0.03,1.0142,-2.1374,-2.916,-1.458,0,0,0
-0.1123,-0.0388,1.0229,-2.7099,-1.8015,-1.1679,0,0,0
-0.116,-0.0359,1.0332,-2.8321,0.4809,-0.9847,0,0,0
-0.1221,-0.0437,1.0254,-2.2443,1.9542,-0.4427,0,0,0
-0.1245,-0.0356,1.0022,-1.4351,1.229,-0.4962,0,0,0
-0.1211,-0.0295,1.0066,-1.9084,-0.6489,-0.6107,0,0,0
-0.1177,-0.0283,1.0071,-3.1527,-2.7481,-0.7939,0,0,0
-0.1226,-0.03,1.0222,-3.1908,-3.7328,-0.9084,0,0,0
-0.1194,-0.033,1.0225,-1.916,-4.4427,-1.1221,0,0,0
-0.126,-0.0295,1.0149,-1.7634,-5.1603,-1.1527,0,0,0
-0.1223,-0.0181,0.9971,-0.6641,-6.7939,-1.3282,0,0,0
-0.1116,-0.012,1.0579,1.0153,-8.7252,-1.6565,0,0,0
-0.1018,-0.0007,1.0454,-0.0687,-9.9313,-1.7023,0,0,0
-0.0906,0.0093,1.0249,3.0382,-12.3817,-3.313,0,0,0
-0.0693,0.0247,1.0093,7.4504,-15.3969,-5.5802,0,0,0
-0.0439,0.0317,1.0474,10.2519,-15.9084,-9.4733,0,0,0
-0.021,0.0649,1.0435,15.0,-14.0458,-15.4122,0,0,0
0.0149,0.0762,1.0476,16.1221,-12.8473,-22.6565,0,0,0
0.0391,0.0649,1.0715,15.1832,-10.0992,-31.9008,0,0,0
-0.0012,0.064,1.1316,5.1298,1.0763,-41.4504,0,0,0
-0.0061,-0.0095,1.1045,12.2137,10.7252,-45.9389,0,0,0
-0.0168,-0.0137,1.0801,17.8321,17.313,-48.4275,0,0,0
-0.0486,-0.0081,1.0193,22.3053,17.8244,-52.4046,0,0,0
-0.0945,0.0012,0.9961,21.8092,14.0534,-56.4046,0,0,0
-0.1245,-0.0171,0.9988,18.6031,9.7863,-58.0611,0,0,0
-0.1641,-0.0544,1.0022,18.9237,5.3053,-55.8626,0,0,0
-0.1755,-0.0271,1.0369,22.0229,4.5649,-50.4504,0,0,0
-0.2195,-0.0557,1.0369,15.0534,5.458,-41.9771,0,0,0
-0.2202,-0.0864,1.0178,9.4351,10.8321,-32.7328,0,0,0
-0.2063,-0.0769,1.0098,7.0534,14.2519,-22.3893,0,0,0
-0.2083,-0.0371,0.9944,4.3511,13.8168,-16.1603,0,0,0
-0.2065,-0.054,0.981,3.0305,10.145,-11.229,0,0,0
-0.2046,-0.0569,0.99,3.7328,3.6489,-7.4656,0,0,0
-0.2092,-0.0513,0.9973,5.7405,-2.0687,-4.4351,0,0,0
-0.1934,-0.0537,1.0027,7.2061,-6.5267,-0.9542,0,0,0
-0.1689,-0.0388,0.9934,9.3359,-9.7863,0.8626,0,0,0
-0.1301,-0.0293,1.0002,9.3053,-11.3282,1.5191,0,0,0
-0.1104,-0.0081,1.0024,7.8321,-11.3588,1.7786,0,0,0
-0.1038,-0.001,1.0181,5.4885,-10.6183,0.4733,0,0,0
-0.0981,0.011,1.0327,1.8626,-7.5725,-0.4046,0,0,0
-0.1062,-0.0005,1.0474,0.4351,-3.5725,-0.6336,0,0,0
-0.1111,0.0005,1.04,-0.3206,0.6031,-0.2137,0,0,0
-0.1125,0.0042,1.0251,0.4046,2.9771,0.6565,0,0,0
-0.1138,0.0159,1.0044,-0.4504,3.1527,1.3969,0,0,0
-0.1118,0.011,0.9912,-2.5725,1.4275,1.9542,0,0,0
-0.1113,0.0105,0.9907,-4.5496,-2.1374,2.4962,0,0,0
-0.1006,0.0171,1.01,-5.7481,-4.1985,2.0229,0,0,0
-0.0957,0.0142,1.0398,-4.9313,-4.3206,0.7099,0,0,0
-0.0923,0.0093,1.0505,-4.0458,-3.1527,0.3893,0,0,0
-0.0898,0.0149,1.0569,-1.9313,-1.9542,0.1603,0,0,0
-0.0913,0.019,1.0427,-0.8092,-1.8397,-0.8473,0,0,0
-0.0957,0.0193,1.033,0.374,-1.4351,-2.6565,0,0,0
-0.0916,0.0208,1.0242,2.2366,-0.1374,-4.1908,0,0,0
-0.0928,0.0176,1.0212,2.1603,1.4198,-4.0305,0,0,0
-0.1047,0.0244,1.0232,-0.6489,2.4504,-3.7328,0,0,0
-0.1152,0.0166,1.0215,-3.5954,4.1374,-3.0076,0,0,0
-0.1255,0.0151,1.0193,-5.7786,4.9008,-1.9008,0,0,0
-0.1174,0.0088,1.0188,-6.6718,4.5954,-0.8779,0,0,0
-0.1138,0.0107,1.0286,-4.4046,3.3511,-0.4046,0,0,0
-0.1125,0.0137,1.0229,-1.542,1.5267,-1.1298,0,0,0
-0.1138,0.0181,1.0264,0.1603,1.4504,-3.0153,0,0,0
-0.1262,0.009,1.0266,-0.0763,1.7634,-3.855,0,0,0
-0.1289,0.0007,1.0098,-0.2137,3.1603,-3.0076,0,0,0
-0.135,0.0063,1.0271,-2.8244,5.2824,-1.4809,0,0,0
-0.1399,-0.0056,1.0305,-6.0153,7.5954,0.7481,0,0,0
-0.1467,-0.0046,1.0217,-7.1679,9.7405,3.0687,0,0,0
