ax,ay,az,gx,gy,gz,left_click,right_click
-0.2422,0.1304,0.9937,-1.2366,-2.0382,-1.5878,0,0,0
-0.2427,0.1265,0.9961,-1.9389,-1.8397,-1.3893,0,0,0
-0.2437,0.1208,0.9949,-2.0458,-1.7099,-1.2061,0,0,0
-0.2415,0.1184,1.0027,-2.0992,-1.4885,-0.9542,0,0,0
-0.2402,0.1172,0.9939,-1.2137,-1.6947,-0.7252,0,0,0
-0.2427,0.1267,1.0054,-0.4046,-1.4504,-0.9542,0,0,0
-0.2451,0.1296,0.9956,-0.2977,-1.1832,-1.0076,0,0,0
-0.2449,0.1304,0.998,-0.855,-0.9084,-1.229,0,0,0
-0.25,0.1296,0.9868,-1.2443,-0.8397,-1.1679,0,0,0
-0.2498,0.1296,0.9902,-2.0,-0.7481,-0.9008,0,0,0
-0.2505,0.1313,0.9868,-2.0458,-0.7557,-0.7634,0,0,0
-0.251,0.126,0.9875,-1.8931,-0.6412,-1.2824,0,0,0
-0.2568,0.1311,0.9863,-1.855,-0.6641,-1.145,0,0,0
-0.2473,0.127,0.9814,-2.2443,-0.916,-1.1679,0,0,0
-0.2498,0.1309,0.9868,-3.0,-1.1527,-1.374,0,0,0
-0.2473,0.127,0.9741,-3.8321,-1.4275,-1.2366,0,0,0
-0.2461,0.1243,0.9797,-4.5496,-1.9542,-1.3817,0,0,0
-0.249,0.1172,0.9868,-4.3664,-2.2137,-0.8244,0,0,0
-0.2432,0.1116,0.9797,-2.9924,-2.3206,-0.1985,0,0,0
-0.2468,0.1143,0.9834,-1.6641,-2.7557,0.0992,0,0,0
-0.248,0.1179,0.9749,-0.4656,-3.0687,0.4962,0,0,0
-0.2549,0.1218,0.9761,-0.4885,-3.8321,0.4046,0,0,0
-0.2544,0.1279,0.9849,-1.4962,-4.313,0.7176,0,0,0
-0.2417,0.1309,0.9883,-2.0076,-4.3588,0.4733,0,0,0
-0.2441,0.1267,0.999,-2.3511,-3.9313,0.374,0,0,0
-0.2493,0.1255,0.9961,-2.1221,-3.8855,0.8931,0,0,0
-0.2515,0.1228,1.0063,-2.0305,-3.5802,0.2366,0,0,0
-0.2417,0.1287,1.0005,-1.458,-3.6412,0.1527,0,0,0
-0.2441,0.1228,0.9995,-1.3053,-3.7099,0.0763,0,0,0
-0.2346,0.1331,1.0034,-1.145,-3.6565,0.1374,0,0,0
-0.2344,0.1287,0.9929,-1.4427,-3.5954,0.1832,0,0,0
-0.2385,0.1211,0.9851,-2.3588,-3.9084,0.3588,0,0,0
-0.2463,0.1235,0.9915,-1.9695,-4.6183,0.9695,0,0,0
-0.2371,0.1279,0.991,-1.5191,-5.374,1.0076,0,0,0
-0.2261,0.1248,0.9827,-0.6641,-5.3359,0.9008,0,0,0
-0.2263,0.1311,0.981,-0.4656,-5.7328,1.1145,0,0,0
-0.2302,0.1328,0.9768,-1.0076,-6.7481,1.2137,0,0,0
-0.2334,0.1382,0.9717,-1.2748,-7.9771,1.3435,0,0,0
-0.2275,0.1465,0.9785,-2.2595,-8.8855,1.2443,0,0,0
-0.2187,0.1616,0.988,-3.1221,-8.5267,0.0153,0,0,0
-0.2046,0.167,0.9956,-4.145,-7.4351,-0.3588,0,0,0
-0.199,0.178,1.0112,-5.542,-4.916,-1.4733,0,0,0
-0.1992,0.1887,1.0105,-7.0229,-2.8855,-4.7023,0,0,0
-0.1912,0.1987,1.0439,-8.4427,0.8702,-8.1145,0,0,0
-0.1753,0.1863,1.063,-10.5496,6.7863,-11.5115,0,0,0
-0.1633,0.1919,1.0791,-10.0534,14.8321,-15.4046,0,0,0
-0.1692,0.1609,1.0803,-8.4275,21.9847,-18.8702,0,0,0
-0.2041,0.1418,1.0671,-4.8015,26.229,-21.2443,0,0,0
-0.2314,0.1167,1.0505,-1.0687,27.9313,-23.0763,0,0,0
-0.2324,0.1162,1.0835,2.8244,31.0382,-25.3282,0,0,0
-0.2241,0.1089,1.0847,6.8244,35.1069,-26.1527,0,0,0
-0.186,0.0789,1.0015,8.4962,37.1069,-24.3282,0,0,0
-0.2708,0.0923,1.0967,8.3053,41.9389,-20.145,0,0,0
-0.2468,0.0601,1.071,11.3969,44.8244,-15.8321,0,0,0
-0.2673,0.0237,1.0828,19.8702,47.4351,-11.6718,0,0,0
-0.2722,0.0354,1.1042,31.8397,52.9695,-9.3664,0,0,0
-0.2783,0.0417,1.0933,44.3588,58.7634,-8.6947,0,0,0
-0.3091,0.0632,1.0598,54.313,62.3435,-5.6412,0,0,0
-0.3604,0.0933,1.0027,56.7634,61.1756,-1.1603,0,0,0
-0.3799,0.1411,0.9773,54.1069,59.2977,2.1374,0,0,0
-0.3691,0.2139,0.9841,46.8855,57.4885,0.2977,0,0,0
-0.3604,0.2026,1.0005,40.6107,56.7557,-2.1603,0,0,0
-0.3547,0.186,0.9954,35.8626,57.6794,-1.2901,0,0,0
-0.3735,0.165,0.9746,32.8855,58.313,0.1908,0,0,0
-0.3948,0.1675,0.9434,33.5191,58.6947,1.145,0,0,0
-0.4463,0.1719,0.8584,33.1679,55.2595,-0.1069,0,0,0
-0.4705,0.1953,0.8437,28.1832,48.4809,-0.5725,0,0,0
-0.4758,0.2122,0.8003,21.8397,39.6947,-0.1832,0,0,0
-0.4802,0.2117,0.7832,14.0992,30.8702,0.4885,0,0,0
-0.4856,0.2048,0.7683,7.3664,22.7786,0.9313,0,0,0
-0.5002,0.1804,0.7532,1.5649,14.9237,4.0305,0,0,0
-0.4873,0.1804,0.7358,-3.8626,6.5496,9.8397,0,0,0
-0.4456,0.2021,0.7881,-7.771,1.2672,10.9695,0,0,0
-0.4102,0.2144,0.8186,-6.5573,-0.6412,7.145,0,0,0
-0.4099,0.2087,0.833,-4.7481,-1.5038,5.1374,0,0,0
-0.427,0.1943,0.8118,-6.3282,-2.3359,7.8321,0,0,0
-0.4465,0.1504,0.8206,-7.9695,-3.6183,13.3053,0,0,0
-0.4453,0.1204,0.8291,-6.6641,-5.084,20.3969,0,0,0
-0.4407,0.1311,0.8105,-4.6947,-8.2137,29.5725,0,0,0
-0.4099,0.2004,0.8215,-6.4427,-10.6641,34.626,0,0,0
-0.3936,0.2625,0.8606,-9.4275,-11.2672,28.9847,0,0,0
-0.3875,0.2305,0.8718,-8.8931,-11.7099,23.0382,0,0,0
-0.4004,0.1675,0.8672,-10.5954,-12.8702,28.3282,0,0,0
-0.4189,0.1309,0.8528,-14.5038,-14.5191,41.5878,0,0,0
-0.4238,0.0964,0.8401,-18.2672,-16.8168,58.5878,0,0,0
-0.4202,0.1289,0.8271,-22.1832,-22.9695,74.9008,0,0,0
-0.4092,0.1882,0.804,-26.1756,-29.2595,82.7023,0,0,0
-0.3621,0.2222,0.8416,-25.9542,-35.8168,81.3664,0,0,0
-0.2937,0.2935,0.9285,-19.1603,-35.3282,65.145,0,0,0
-0.2339,0.2925,1.0337,-4.6565,-24.6183,39.8779,0,0,0
-0.196,0.2241,1.085,13.8168,-9.1679,26.8626,0,0,0
-0.2515,0.2339,1.0417,23.6489,3.145,29.5114,0,0,0
-0.3218,0.27,0.9968,17.2366,10.8473,36.9389,0,0,0
-0.3777,0.3018,0.9409,7.0229,13.4046,42.0229,0,0,0
-0.4094,0.3164,0.8967,-4.8779,9.0763,42.2061,0,0,0
-0.4255,0.2937,0.8345,-16.5114,-1.2824,42.8702,0,0,0
-0.4109,0.28,0.8335,-28.7786,-10.8931,41.5954,0,0,0
-0.3552,0.2646,0.9351,-30.1527,-12.5802,35.2901,0,0,0
-0.2908,0.2297,0.9954,-21.2595,-5.9389,27.9924,0,0,0
-0.241,0.2002,1.0581,-6.6489,6.3588,26.1221,0,0,0
-0.2905,0.2202,1.0251,4.0534,16.1374,27.771,0,0,0
-0.3689,0.2617,0.9717,8.8626,19.8321,27.1908,0,0,0
-0.4097,0.293,0.9038,8.7328,18.4275,25.0305,0,0,0
-0.4187,0.3298,0.8665,4.0992,12.5573,23.2061,0,0,0
-0.4036,0.3638,0.8594,-4.0153,6.2748,21.542,0,0,0
-0.3889,0.3901,0.8738,-12.7557,2.2824,17.0382,0,0,0
-0.3767,0.3962,0.8997,-16.9847,-0.7099,7.4656,0,0,0
-0.3767,0.3542,0.9006,-16.9847,-3.1527,-0.5954,0,0,0
-0.3745,0.2898,0.9038,-16.1832,-5.6641,-2.2061,0,0,0
-0.3513,0.2749,0.9177,-14.6947,-5.3511,0.0611,0,0,0
-0.3389,0.2939,0.9275,-9.8015,-4.0534,0.2443,0,0,0
-0.335,0.3125,0.9209,-3.9084,-3.2519,-3.9542,0,0,0
-0.3457,0.334,0.9155,1.9084,-4.3511,-9.9695,0,0,0
-0.3379,0.3394,0.9216,3.8702,-4.8626,-15.9847,0,0,0
-0.3311,0.3533,0.9185,6.1679,-4.771,-20.9084,0,0,0
-0.353,0.3569,0.8855,6.6794,-6.9237,-24.8702,0,0,0
-0.3967,0.3406,0.8538,8.0916,-13.6718,-28.5573,0,0,0
-0.4333,0.3345,0.8083,12.313,-25.6794,-32.5725,0,0,0
-0.4604,0.3477,0.7974,20.0305,-39.4046,-38.5267,0,0,0
-0.4138,0.3433,0.772,29.0153,-55.7099,-45.4885,0,0,0
-0.4138,0.3442,0.7437,38.1985,-71.6641,-52.1985,0,0,0
-0.3831,0.3337,0.7993,43.0,-82.6565,-53.8855,0,0,0
-0.3052,0.3574,0.8591,40.542,-85.9008,-49.2366,0,0,0
-0.1997,0.3806,0.9661,28.8168,-77.3053,-40.542,0,0,0
-0.106,0.46,1.0596,12.6794,-58.1374,-35.4809,0,0,0
-0.0806,0.4968,1.0557,-0.9695,-40.2366,-38.1374,0,0,0
-0.1423,0.4573,1.0505,-10.313,-26.5649,-47.3359,0,0,0
-0.2183,0.3689,1.0383,-8.5573,-22.6947,-54.0153,0,0,0
-0.271,0.2788,0.9697,0.5038,-21.4885,-56.855,0,0,0
-0.3069,0.2493,0.9338,10.8321,-27.1374,-53.6107,0,0,0
-0.3069,0.2749,0.9229,18.7557,-33.1603,-50.7939,0,0,0
-0.2908,0.3176,0.9348,22.1374,-39.4198,-53.3282,0,0,0
-0.2747,0.3162,0.9487,21.458,-44.8473,-57.6489,0,0,0
-0.2451,0.2832,0.9844,17.0382,-45.0382,-56.4733,0,0,0
-0.2014,0.2502,1.0291,10.771,-39.0229,-51.4198,0,0,0
-0.1484,0.25,1.0652,7.3206,-28.9847,-45.8473,0,0,0
-0.1394,0.2588,1.0544,4.7863,-19.1908,-44.1985,0,0,0
-0.1782,0.2769,1.0234,4.7481,-13.6031,-44.6489,0,0,0
-0.2266,0.2542,1.0249,5.0763,-9.8626,-46.8092,0,0,0
-0.2571,0.2144,1.0098,9.9466,-9.4046,-48.145,0,0,0
-0.2595,0.1694,0.9956,19.1069,-10.7557,-44.9618,0,0,0
-0.2754,0.1785,0.958,25.0916,-14.5344,-38.3359,0,0,0
-0.2524,0.2529,0.9692,26.1145,-19.313,-35.0076,0,0,0
-0.2717,0.2693,0.9158,22.5878,-24.8931,-35.4656,0,0,0
-0.2764,0.2986,0.9297,17.626,-29.8702,-37.8168,0,0,0
-0.2612,0.2563,0.9438,10.7557,-31.3817,-38.2519,0,0,0
-0.2249,0.2163,0.9839,7.4885,-28.3817,-33.7023,0,0,0
-0.1772,0.2139,1.0193,5.7939,-21.6107,-26.687,0,0,0
-0.1558,0.2527,1.0454,5.2901,-13.6412,-24.9924,0,0,0
-0.1733,0.231,1.05,9.0153,-7.2595,-27.1221,0,0,0
-0.2078,0.2112,1.033,15.1832,-2.5878,-27.0763,0,0,0
-0.2305,0.2256,1.009,18.8779,0.0076,-22.542,0,0,0
-0.2327,0.21,1.0222,21.7405,1.9466,-17.0611,0,0,0
-0.2078,0.2371,1.0242,24.4351,6.1069,-12.1298,0,0,0
-0.2,0.2815,1.0256,23.374,10.2824,-11.7099,0,0,0
-0.2158,0.2986,1.0193,21.6794,13.6718,-12.2214,0,0,0
-0.2415,0.2908,0.9941,17.2977,15.8397,-10.9466,0,0,0
-0.26,0.3022,0.991,13.4198,16.7481,-8.084,0,0,0
-0.2512,0.304,0.9849,10.2061,18.4504,-7.2443,0,0,0
-0.2468,0.2927,1.0012,10.8015,19.3206,-7.3893,0,0,0
-0.2517,0.2805,1.0063,13.4809,20.6183,-7.1069,0,0,0
-0.2517,0.2854,1.0151,17.7634,23.1679,-6.0,0,0,0
-0.2554,0.2998,1.0249,22.0229,26.0687,-5.9695,0,0,0
-0.2651,0.2996,1.0151,24.2672,29.3511,-5.6336,0,0,0
-0.2698,0.3025,1.03,24.5267,33.5496,-4.0382,0,0,0
-0.2622,0.3164,1.0281,24.1527,38.4198,-3.1756,0,0,0
-0.2529,0.3394,1.0388,23.1298,43.5878,-3.6947,0,0,0
-0.2463,0.3477,1.0364,21.6641,49.916,-5.4275,0,0,0
-0.2625,0.353,1.0247,21.7328,55.771,-8.8244,0,0,0
-0.2939,0.3311,0.9958,23.0992,60.1069,-11.0305,0,0,0
-0.3276,0.3232,0.969,25.7023,61.8015,-10.8473,0,0,0
-0.3418,0.3333,0.9478,28.1069,62.6412,-11.2824,0,0,0
-0.3425,0.3645,0.929,28.6565,63.542,-12.8702,0,0,0
-0.3367,0.3755,0.9238,28.2672,65.6412,-15.687,0,0,0
-0.3474,0.3708,0.9001,28.0076,67.5267,-17.8168,0,0,0
-0.3826,0.385,0.8787,28.0687,68.6489,-17.9618,0,0,0
-0.3972,0.4143,0.8362,25.9924,68.1527,-18.855,0,0,0
-0.4329,0.4014,0.7961,22.3969,64.9466,-22.2061,0,0,0
-0.4551,0.3918,0.7781,21.2748,61.1908,-23.2748,0,0,0
-0.4561,0.3818,0.7607,20.3435,55.2901,-22.8168,0,0,0
-0.4724,0.3977,0.7566,19.0,48.8092,-22.6565,0,0,0
-0.4727,0.3906,0.7498,18.0611,44.229,-24.3588,0,0,0
-0.4807,0.4019,0.7419,18.0916,39.1069,-25.1985,0,0,0
-0.5051,0.3955,0.7185,16.6641,34.8092,-25.2977,0,0,0
-0.4827,0.4165,0.7354,13.8626,30.8855,-27.2519,0,0,0
-0.4802,0.3987,0.7129,12.0229,26.8626,-28.9847,0,0,0
-0.5088,0.4087,0.7007,9.0153,21.5573,-28.5344,0,0,0
-0.5256,0.4072,0.7004,4.6947,16.0763,-28.8473,0,0,0
-0.522,0.4131,0.6992,2.1069,11.3206,-30.3664,0,0,0
-0.5334,0.3928,0.6929,1.8092,5.7405,-31.7786,0,0,0
-0.5396,0.3955,0.6797,1.7786,-0.458,-32.2672,0,0,0
-0.5359,0.376,0.6841,2.4656,-6.4275,-32.3817,0,0,0
-0.5139,0.3872,0.698,3.9618,-11.3435,-32.9237,0,0,0
-0.5037,0.376,0.6951,3.8855,-15.2137,-34.855,0,0,0
-0.5044,0.3628,0.7163,5.6336,-18.4275,-34.6031,0,0,0
-0.5068,0.3501,0.7166,7.7634,-21.8855,-32.9618,0,0,0
-0.5022,0.374,0.7278,11.5191,-25.2214,-33.084,0,0,0
-0.4888,0.3943,0.7212,14.4962,-28.2672,-35.374,0,0,0
-0.4968,0.3953,0.7107,14.4962,-31.9313,-38.1985,0,0,0
-0.5054,0.373,0.7068,11.1679,-36.374,-38.0763,0,0,0
-0.4856,0.364,0.7205,5.1603,-39.4198,-37.9924,0,0,0
-0.4666,0.3381,0.7356,1.0992,-40.9924,-37.1374,0,0,0
-0.4624,0.3118,0.7524,0.2443,-40.6107,-35.2901,0,0,0
-0.4556,0.3372,0.7852,2.6107,-39.5191,-33.0153,0,0,0
-0.4365,0.3494,0.8171,3.8168,-35.2824,-33.2977,0,0,0
-0.4324,0.3413,0.8237,6.0992,-30.9847,-33.0153,0,0,0
-0.4402,0.3193,0.822,7.5573,-27.7481,-31.1374,0,0,0
-0.4465,0.3384,0.8401,8.7176,-26.3282,-29.3969,0,0,0
-0.448,0.3257,0.8342,8.771,-24.8321,-30.458,0,0,0
-0.4521,0.2986,0.8423,11.9847,-24.1069,-30.0229,0,0,0
-0.4622,0.291,0.8418,15.8015,-25.3206,-26.7863,0,0,0
-0.4548,0.3159,0.8457,16.7252,-28.2443,-25.0382,0,0,0
-0.449,0.3181,0.8418,15.8702,-31.0534,-25.7939,0,0,0
-0.4348,0.3137,0.864,14.313,-35.1756,-25.5802,0,0,0
-0.4526,0.2683,0.8413,13.5038,-37.7557,-22.8397,0,0,0
-0.4463,0.2732,0.8706,12.9313,-39.6412,-19.8092,0,0,0
-0.4167,0.2913,0.8899,13.0458,-39.8855,-17.1679,0,0,0
-0.3826,0.312,0.9097,10.5496,-36.4275,-17.6107,0,0,0
-0.3752,0.2981,0.9172,6.6718,-30.4504,-17.0382,0,0,0
-0.3906,0.2651,0.9182,2.6794,-24.3435,-13.542,0,0,0
-0.386,0.28,0.9187,0.916,-18.9771,-9.9389,0,0,0
-0.3828,0.2898,0.9131,1.0076,-15.1832,-9.2748,0,0,0
-0.4026,0.2903,0.9082,3.458,-12.8244,-8.6489,0,0,0
-0.4067,0.3098,0.8965,4.9924,-10.5954,-7.8473,0,0,0
-0.4128,0.3386,0.8809,3.3969,-10.0534,-8.2901,0,0,0
-0.4275,0.366,0.874,-0.9313,-10.7405,-9.3817,0,0,0
-0.4194,0.3545,0.9043,-5.8244,-9.8855,-9.5954,0,0,0
-0.3953,0.3665,0.9397,-7.5649,-7.229,-10.4733,0,0,0
-0.3977,0.3442,0.9614,-6.8779,-5.084,-12.0992,0,0,0
-0.418,0.3091,0.9514,-4.4198,-4.0992,-11.9008,0,0,0
-0.4294,0.3037,0.9546,-2.1527,-3.7176,-10.7176,0,0,0
-0.4253,0.3171,0.9565,-1.7939,-2.2595,-8.3206,0,0,0
-0.3977,0.3584,0.9939,-2.9847,2.1145,-6.7405,0,0,0
-0.387,0.3997,0.9966,-4.4733,7.8626,-8.9008,0,0,0
-0.4082,0.3899,0.9998,-5.1832,13.4504,-11.8168,0,0,0
-0.4331,0.3621,0.991,-4.7328,17.3282,-13.6183,0,0,0
-0.436,0.3579,0.969,-3.0687,19.7557,-14.542,0,0,0
-0.4324,0.3672,0.9534,-1.1527,21.4046,-15.0687,0,0,0
-0.428,0.375,0.9424,-0.3282,23.5114,-15.9389,0,0,0
-0.4258,0.3884,0.928,-0.5496,25.5649,-18.1679,0,0,0
-0.4346,0.3733,0.9109,-2.0305,26.7099,-21.3588,0,0,0
-0.4446,0.3474,0.8916,-2.2824,28.0687,-22.7023,0,0,0
-0.4441,0.3481,0.8823,-3.1985,29.1908,-22.5802,0,0,0
-0.4353,0.3384,0.8748,-4.4046,30.313,-23.1145,0,0,0
-0.4402,0.3269,0.855,-5.458,32.1145,-24.4504,0,0,0
-0.488,0.2771,0.8105,-7.8168,30.9466,-24.7481,0,0,0
-0.498,0.251,0.7922,-8.916,28.626,-22.0,0,0,0
-0.4995,0.23,0.7612,-10.9695,24.9771,-18.6718,0,0,0
-0.5107,0.2039,0.748,-14.1832,23.084,-14.1985,0,0,0
-0.4929,0.2056,0.7573,-17.0,23.2366,-8.1832,0,0,0
-0.5146,0.1868,0.7261,-17.9237,20.8321,-2.5573,0,0,0
-0.5371,0.1653,0.72,-18.313,18.1756,1.458,0,0,0
-0.531,0.1738,0.739,-18.1069,14.9542,4.771,0,0,0
-0.5208,0.1506,0.7537,-17.5725,13.5954,8.3664,0,0,0
-0.5322,0.1467,0.7791,-18.8397,11.2901,13.6489,0,0,0
-0.5466,0.1345,0.7603,-19.458,9.6107,20.5344,0,0,0
-0.5784,0.1011,0.7683,-22.6489,6.5344,29.3664,0,0,0
-0.5879,0.0764,0.7808,-25.9389,3.458,40.8931,0,0,0
-0.5896,0.0371,0.7927,-30.0,0.458,57.1908,0,0,0
-0.5823,0.0156,0.78,-35.2901,-3.9771,79.1756,0,0,0
-0.5154,0.1204,0.811,-42.2824,-9.7023,97.8473,0,0,0
-0.4653,0.155,0.8696,-52.1298,-10.2443,101.145,0,0,0
-0.4216,0.1763,0.9316,-46.7176,-8.2748,95.4275,0,0,0
-0.418,0.1631,0.9412,-34.1832,-6.2519,92.5802,0,0,0
-0.4221,0.1907,0.9575,-23.8321,-2.3206,96.0687,0,0,0
-0.4243,0.2397,0.9304,-20.1679,2.3664,103.9618,0,0,0
-0.4321,0.2991,0.9121,-23.2519,4.2672,111.8015,0,0,0
-0.448,0.3047,0.8635,-32.5878,2.0382,117.8626,0,0,0
-0.4407,0.3186,0.8477,-45.374,-2.2366,122.0458,0,0,0
-0.408,0.4146,0.8335,-60.4122,-6.4962,116.6183,0,0,0
-0.3779,0.4958,0.9382,-66.2443,-1.687,91.2595,0,0,0
-0.3367,0.4465,1.0015,-56.542,8.3359,62.5267,0,0,0
-0.2871,0.3364,1.0217,-39.0382,21.7405,54.8321,0,0,0
-0.3486,0.3103,0.9604,-26.0382,31.4809,63.4962,0,0,0
-0.4094,0.3015,0.928,-15.5878,37.1679,72.9313,0,0,0
-0.4736,0.3542,0.8516,-9.9542,35.0687,77.7863,0,0,0
-0.4907,0.3923,0.7732,-13.8168,25.5954,80.8092,0,0,0
-0.478,0.4465,0.7273,-28.2443,13.1374,80.8931,0,0,0
-0.4624,0.4941,0.7542,-43.8779,3.084,72.0992,0,0,0
-0.4268,0.4409,0.8303,-46.5878,1.6183,55.916,0,0,0
-0.366,0.3782,0.8765,-35.0382,4.3206,44.5954,0,0,0
-0.3616,0.3635,0.9375,-15.0611,9.4122,44.9695,0,0,0
-0.4053,0.3953,0.9016,-1.6947,11.7786,46.9237,0,0,0
-0.4482,0.4724,0.8774,4.8931,11.2977,44.0916,0,0,0
-0.4504,0.5388,0.8447,1.8015,7.8015,38.374,0,0,0
-0.4451,0.5757,0.822,-8.0992,2.6641,30.3664,0,0,0
-0.4351,0.5549,0.8208,-17.0992,-1.0305,21.1603,0,0,0
-0.4263,0.5024,0.8362,-20.1985,-4.9847,12.7786,0,0,0
-0.4009,0.4629,0.8464,-19.8702,-7.0534,10.542,0,0,0
-0.3958,0.4529,0.8403,-17.1679,-8.6489,9.0229,0,0,0
-0.396,0.4512,0.8496,-13.3282,-10.1374,4.0229,0,0,0
-0.3936,0.4392,0.8555,-8.1145,-12.1145,-1.2672,0,0,0
-0.3843,0.416,0.8472,-3.5267,-14.0076,-3.3359,0,0,0
-0.3848,0.4094,0.825,1.4198,-16.2214,-3.9847,0,0,0
-0.3967,0.4321,0.8025,5.8626,-20.3969,-7.8779,0,0,0
-0.4053,0.4597,0.7805,11.6565,-26.7786,-16.6107,0,0,0
-0.4075,0.4707,0.7739,16.5267,-36.6718,-28.374,0,0,0
-0.4092,0.4241,0.782,19.6031,-46.9389,-34.4122,0,0,0
-0.396,0.4224,0.8252,18.9313,-51.8321,-34.4351,0,0,0
-0.353,0.4333,0.8347,17.8702,-54.626,-34.6183,0,0,0
-0.3113,0.4512,0.8711,17.4427,-56.7176,-39.4351,0,0,0
-0.2903,0.4714,0.8828,18.6183,-58.2137,-49.3359,0,0,0
-0.2944,0.4521,0.8765,20.2824,-61.0458,-58.2061,0,0,0
-0.3005,0.3955,0.8826,22.3893,-62.9542,-60.1679,0,0,0
-0.2786,0.3801,0.8975,24.229,-63.0,-56.4427,0,0,0
-0.2432,0.4241,0.9319,23.6412,-57.0916,-58.3511,0,0,0
-0.2109,0.4592,0.9634,26.1908,-50.8015,-65.3817,0,0,0
-0.2112,0.4417,0.9441,27.8321,-45.5573,-73.5573,0,0,0
-0.2349,0.3997,0.9272,29.1832,-43.626,-74.5344,0,0,0
-0.2754,0.3462,0.8997,27.9695,-43.4885,-69.1145,0,0,0
-0.2969,0.355,0.8716,26.1298,-44.3435,-60.6947,0,0,0
-0.2888,0.4019,0.8689,20.5878,-44.8244,-59.3664,0,0,0
-0.2727,0.3889,0.8691,13.8015,-46.1985,-60.0382,0,0,0
-0.2673,0.3599,0.9048,5.9542,-43.4504,-55.7557,0,0,0
-0.2556,0.3301,0.915,-3.7863,-37.3053,-47.6336,0,0,0
-0.2471,0.3394,0.9434,-11.8015,-28.5802,-42.1756,0,0,0
-0.2561,0.3079,0.9431,-13.3893,-22.7557,-41.8473,0,0,0
-0.2805,0.2664,0.9387,-9.6565,-20.0,-40.1756,0,0,0
-0.3254,0.2449,0.9216,-3.8931,-20.3282,-35.2672,0,0,0
-0.3359,0.2485,0.9292,2.5954,-21.6489,-30.3053,0,0,0
-0.3401,0.26,0.9231,7.8015,-23.6183,-27.1756,0,0,0
-0.335,0.2664,0.9387,10.6107,-25.229,-24.2672,0,0,0
-0.3359,0.2732,0.9517,8.4962,-25.7786,-19.6947,0,0,0
-0.3142,0.2805,0.9741,3.3969,-24.3282,-13.9237,0,0,0
-0.2825,0.2822,1.0054,-2.4504,-20.5649,-8.1756,0,0,0
-0.2532,0.3274,1.0571,-9.1603,-11.9542,-6.3588,0,0,0
-0.229,0.3103,1.0757,-10.9924,-2.8244,-8.8702,0,0,0
-0.2324,0.2634,1.1035,-7.3511,8.1603,-11.0534,0,0,0
-0.2446,0.2437,1.0867,-2.1908,18.2595,-9.5344,0,0,0
-0.2517,0.2539,1.0896,2.3664,27.0763,-6.8321,0,0,0
-0.2637,0.2656,1.0764,5.1069,33.5573,-4.8015,0,0,0
-0.272,0.282,1.054,6.6336,38.3664,-4.4275,0,0,0
-0.272,0.3059,1.0576,6.1679,44.2595,-5.374,0,0,0
-0.2881,0.3132,1.0366,4.5191,48.9542,-7.1756,0,0,0
-0.2983,0.3074,1.0217,2.2595,51.7099,-8.1908,0,0,0
-0.3235,0.2896,0.9998,1.1756,53.313,-7.5191,0,0,0
-0.3445,0.3049,0.9868,1.3282,53.5954,-6.9237,0,0,0
-0.3518,0.2974,0.97,1.7252,55.0458,-8.313,0,0,0
-0.3665,0.2786,0.9814,3.3969,55.855,-9.0992,0,0,0
-0.3677,0.2659,0.9526,5.7099,57.1832,-7.4733,0,0,0
-0.3875,0.2805,0.9238,7.8779,56.2366,-6.1145,0,0,0
-0.4084,0.2876,0.8982,9.4656,54.2977,-6.8702,0,0,0
-0.4302,0.2844,0.8794,9.8473,51.3664,-6.4046,0,0,0
-0.481,0.2744,0.8184,8.916,49.0076,-4.3969,0,0,0
-0.4548,0.2986,0.8574,5.7328,46.0153,-2.1908,0,0,0
-0.4526,0.2979,0.8311,4.2214,43.313,-0.6336,0,0,0
-0.4348,0.3093,0.832,2.313,44.3206,-0.8626,0,0,0
-0.4373,0.3115,0.8413,0.7786,43.4198,-0.8473,0,0,0
-0.4463,0.3198,0.8167,1.1374,42.2901,0.4809,0,0,0
-0.4717,0.3232,0.7766,0.4733,40.8702,0.4656,0,0,0
-0.4688,0.3027,0.7971,-1.2214,36.5725,0.3511,0,0,0
-0.4546,0.3093,0.7815,1.1679,32.0611,0.2214,0,0,0
-0.4692,0.2993,0.7725,2.4809,28.3817,0.4962,0,0,0
-0.4688,0.3232,0.7676,3.3664,26.3435,1.0076,0,0,0
-0.4766,0.3301,0.7354,2.313,22.5114,2.5344,0,0,0
-0.5022,0.3452,0.7209,-2.0229,17.8931,4.0687,0,0,0
-0.5125,0.3608,0.7183,-9.0076,12.771,4.8626,0,0,0
-0.5144,0.3467,0.7173,-15.7405,6.7557,5.4733,0,0,0
-0.5042,0.3027,0.7268,-20.0305,1.7099,7.5878,0,0,0
-0.4814,0.2988,0.7634,-19.3511,-0.9695,10.0687,0,0,0
-0.4595,0.2969,0.7881,-15.9924,-1.0992,10.7405,0,0,0
-0.4578,0.314,0.7969,-10.7176,-0.1374,10.4198,0,0,0
-0.4722,0.3264,0.8125,-7.145,-0.0305,10.9237,0,0,0
-0.488,0.3296,0.7969,-6.2061,-0.4962,12.4885,0,0,0
-0.4802,0.3518,0.8071,-6.5878,-0.2214,13.7481,0,0,0
-0.4692,0.363,0.8184,-8.542,0.1527,13.8626,0,0,0
-0.468,0.364,0.8206,-10.4733,-0.3588,13.2137,0,0,0
-0.4673,0.3457,0.8318,-13.5038,-0.4809,14.1908,0,0,0
-0.4666,0.3306,0.8428,-17.3206,1.0992,17.7939,0,0,0
-0.4675,0.3079,0.833,-21.0305,2.2901,24.0153,0,0,0
-0.4656,0.3296,0.8311,-23.7634,2.1985,29.0153,0,0,0
-0.4631,0.3567,0.8291,-24.3893,0.5344,26.8244,0,0,0
-0.4612,0.3948,0.8606,-22.1374,0.5496,18.7863,0,0,0
-0.4602,0.3872,0.8591,-17.2519,-0.2061,11.2443,0,0,0
-0.4692,0.3708,0.8567,-15.374,-0.1985,9.5954,0,0,0
-0.4646,0.3601,0.8701,-17.2595,1.6031,12.1069,0,0,0
-0.45,0.3352,0.8784,-21.3817,5.4427,16.3511,0,0,0
-0.4575,0.3088,0.8625,-24.4504,7.3893,21.8092,0,0,0
-0.4783,0.2917,0.8291,-25.7481,5.2443,25.5725,0,0,0
-0.4846,0.2798,0.8179,-25.8397,0.7176,27.1145,0,0,0
-0.4861,0.2664,0.7905,-23.084,-4.9008,29.5573,0,0,0
-0.4753,0.2561,0.7776,-21.4733,-12.1221,36.0992,0,0,0
-0.47,0.2961,0.7249,-23.374,-19.9237,41.9695,0,0,0
-0.4736,0.4075,0.7139,-29.6641,-29.8779,35.9466,0,0,0
-0.467,0.4897,0.7583,-31.3664,-38.1985,14.6107,0,0,0
-0.4873,0.3965,0.7485,-23.1756,-40.374,-2.6565,0,0,0
-0.2727,0.9265,1.4492,-64.1603,-69.4122,-3.7176,0,0,0
-0.3589,0.1702,0.7783,-20.9237,-37.7634,12.1221,0,0,0
-0.3757,0.3374,0.8943,-18.2824,-37.4046,8.4885,0,0,0
-0.3757,0.3652,0.8357,-15.1603,-38.6107,-2.5038,0,0,0
-0.4189,0.3391,0.8906,-9.0,-36.1603,-10.3053,0,0,0
-0.436,0.3062,0.8906,-3.2595,-38.2366,-11.2214,0,0,0
-0.3843,0.2883,0.8936,1.542,-36.8168,-8.9695,0,0,0
-0.3672,0.3015,0.8916,3.6412,-38.7634,-7.3053,0,0,0
-0.3621,0.2805,0.8821,8.4504,-39.1298,-5.7252,0,0,0
-0.3569,0.2964,0.9482,9.8626,-37.0305,-3.5725,0,0,0
-0.3313,0.3257,0.9651,7.1832,-30.8244,-0.8244,0,0,0
-0.2671,0.3711,1.0242,2.5573,-18.6947,-2.4885,0,0,0
-0.2544,0.3181,1.0222,1.0916,-8.5573,-6.4046,0,0,0
-0.2854,0.3025,1.0088,3.4122,-1.7099,-8.2901,0,0,0
-0.3359,0.2527,0.9812,8.4427,3.0992,-6.687,0,0,0
-0.3652,0.259,0.9739,12.3435,3.0687,-4.3435,0,0,0
-0.3721,0.3101,0.9382,15.4198,2.9847,-5.0076,0,0,0
-0.3787,0.313,0.9214,15.2824,0.9618,-6.0534,0,0,0
-0.3755,0.3293,0.9458,15.2366,0.5649,-8.8779,0,0,0
-0.3662,0.3225,0.9399,15.8168,2.1756,-11.9466,0,0,0
-0.3633,0.3354,0.9412,16.9771,3.5649,-13.7557,0,0,0
-0.3682,0.3179,0.9387,16.855,5.9084,-12.7863,0,0,0
-0.3716,0.3191,0.9414,17.5267,7.9542,-11.1679,0,0,0
-0.3726,0.3291,0.9265,20.8702,9.2824,-11.2595,0,0,0
-0.3796,0.3364,0.9016,25.0305,12.2595,-13.9313,0,0,0
-0.3723,0.3665,0.8916,28.3053,12.4962,-17.9618,0,0,0
-0.3848,0.3584,0.927,24.0382,16.4809,-21.5038,0,0,0
-0.3777,0.3906,0.9138,22.8321,18.4962,-23.6412,0,0,0
-0.3733,0.394,0.9248,17.7863,20.5038,-28.0153,0,0,0
-0.3884,0.364,0.906,15.1298,19.1374,-29.0229,0,0,0
-0.4019,0.3567,0.8757,13.3893,18.2824,-28.3511,0,0,0
-0.4087,0.3435,0.8628,11.0076,17.4046,-26.6641,0,0,0
-0.4167,0.3535,0.843,9.855,14.7863,-26.6412,0,0,0
-0.4119,0.3728,0.8606,8.5191,13.0687,-29.0992,0,0,0
-0.4067,0.3669,0.8752,7.4046,12.6947,-32.4733,0,0,0
-0.4053,0.3467,0.8706,6.1603,13.7099,-34.084,0,0,0
-0.4219,0.353,0.8667,4.2595,12.7786,-32.8473,0,0,0
-0.4336,0.3416,0.8491,1.1145,12.6794,-32.5649,0,0,0
-0.4438,0.3303,0.8545,-1.1832,11.313,-32.6412,0,0,0
-0.4443,0.3071,0.8433,-4.0687,10.5802,-31.6718,0,0,0
-0.4348,0.3118,0.8499,-6.5344,9.7557,-30.0534,0,0,0
-0.4377,0.3059,0.8296,-9.9924,9.4885,-29.6641,0,0,0
-0.4634,0.2908,0.7695,-12.5038,8.9847,-29.8397,0,0,0
-0.4688,0.2993,0.8638,-16.0382,6.0229,-28.7863,0,0,0
-0.4612,0.2512,0.8215,-16.7328,2.6336,-26.4962,0,0,0
-0.4846,0.2312,0.8342,-17.145,-1.3053,-22.0687,0,0,0
-0.4553,0.2488,0.8337,-16.855,-2.2977,-18.8168,0,0,0
-0.4485,0.2527,0.8452,-18.3359,-3.5191,-17.2214,0,0,0
-0.448,0.2544,0.8713,-18.2443,-2.4275,-15.4122,0,0,0
-0.4441,0.2549,0.8579,-19.8855,-1.2901,-14.9466,0,0,0
-0.4617,0.2195,0.876,-17.6794,-1.0763,-13.8855,0,0,0
-0.4731,0.1855,0.8728,-13.6565,-1.7099,-9.5496,0,0,0
-0.4805,0.1731,0.8572,-9.6412,-3.0687,-3.2519,0,0,0
-0.4817,0.1956,0.8406,-7.7328,-4.7252,2.6031,0,0,0
-0.4778,0.2183,0.8469,-9.0076,-6.9389,8.229,0,0,0
-0.4656,0.2397,0.8457,-12.5802,-9.1527,13.6794,0,0,0
-0.4702,0.2742,0.843,-16.5802,-11.2672,15.4962,0,0,0
-0.4778,0.2786,0.8447,-20.0687,-13.8092,15.9618,0,0,0
-0.4712,0.2786,0.842,-23.8931,-16.3969,16.6565,0,0,0
-0.4673,0.2454,0.8667,-26.3817,-18.2672,20.2443,0,0,0
-0.4355,0.2808,0.8826,-25.9008,-18.6336,22.9466,0,0,0
-0.4185,0.2905,0.9021,-24.313,-15.9542,18.7557,0,0,0
-0.407,0.2642,0.9375,-19.145,-11.8321,13.7328,0,0,0
-0.4275,0.217,0.9182,-13.7405,-8.9313,14.4656,0,0,0
-0.4312,0.2246,0.9128,-11.5954,-6.0076,20.2443,0,0,0
-0.4421,0.2446,0.9167,-12.3053,-3.6641,24.6489,0,0,0
-0.4131,0.3152,0.9265,-13.145,-3.6183,25.2519,0,0,0
-0.3933,0.3313,0.938,-17.0,-0.8168,18.5267,0,0,0
-0.3909,0.2844,0.9534,-14.8397,2.9008,11.4427,0,0,0
-0.4106,0.2351,0.9385,-12.145,5.7634,11.542,0,0,0
-0.427,0.2107,0.9319,-11.4198,7.3435,17.5267,0,0,0
-0.4417,0.1995,0.8975,-12.626,7.9084,24.7405,0,0,0
-0.4434,0.2559,0.8904,-14.1298,5.1145,30.313,0,0,0
-0.4238,0.272,0.9109,-16.5267,4.7481,29.7328,0,0,0
-0.4165,0.2622,0.9082,-14.5191,3.5802,23.5038,0,0,0
-0.4084,0.2517,0.8823,-7.3282,2.7252,19.5954,0,0,0
-0.4136,0.2495,0.8997,-3.771,1.8092,18.0153,0,0,0
-0.4082,0.2581,0.925,0.4656,4.626,16.6947,0,0,0
-0.3877,0.2676,0.9304,3.0229,8.5267,17.2748,0,0,0
-0.3938,0.304,0.9224,1.4046,11.6412,17.7405,0,0,0
-0.4124,0.3203,0.9077,-1.1908,12.0992,16.8931,0,0,0
-0.438,0.3123,0.8835,-4.9389,10.916,14.916,0,0,0
-0.4412,0.2896,0.8655,-7.7939,9.1832,13.9847,0,0,0
-0.4414,0.2915,0.8491,-10.4733,6.3511,14.374,0,0,0
-0.437,0.2886,0.8586,-10.7939,4.0153,11.3893,0,0,0
-0.4187,0.2771,0.875,-7.2595,2.6336,6.3664,0,0,0
-0.4084,0.2715,0.8916,-1.5191,2.5115,4.145,0,0,0
-0.4121,0.2764,0.8823,1.229,4.2443,6.0534,0,0,0
-0.4089,0.2993,0.876,0.5954,6.0,6.8397,0,0,0
-0.4248,0.3081,0.8516,-2.6031,5.9084,5.2672,0,0,0
-0.4458,0.3066,0.8411,-6.3817,3.6107,3.4962,0,0,0
-0.4519,0.2869,0.8423,-8.4046,0.1832,2.0534,0,0,0
-0.4438,0.2627,0.8608,-7.9084,-2.0382,1.6794,0,0,0
-0.4146,0.2664,0.8777,-5.3893,-2.374,2.1069,0,0,0
-0.4099,0.2852,0.8799,-3.8168,-1.7634,2.1527,0,0,0
-0.4177,0.2759,0.8901,-3.7405,-0.771,1.2824,0,0,0
-0.4211,0.2837,0.8696,-3.6641,-0.1374,-0.1679,0,0,0
-0.4285,0.2766,0.8716,-4.5344,-0.2977,-1.4122,0,0,0
-0.4446,0.272,0.8608,-5.2137,-1.9008,-1.8321,0,0,0
-0.4568,0.2671,0.8572,-4.8015,-4.2366,-1.145,0,0,0
-0.4448,0.2842,0.8569,-3.8015,-6.1603,-1.687,0,0,0
-0.4363,0.2734,0.8723,-3.1221,-7.0763,-2.8473,0,0,0
-0.4229,0.2766,0.8816,-1.2137,-7.8931,-3.5496,0,0,0
-0.4199,0.2703,0.8762,0.0076,-8.3053,-2.8473,0,0,0
-0.416,0.2815,0.8877,2.084,-9.0534,-2.9771,0,0,0
-0.4138,0.2927,0.8838,4.6336,-9.9237,-6.6183,0,0,0
-0.4175,0.3115,0.8667,7.7099,-11.7557,-10.2061,0,0,0
-0.4434,0.2993,0.8474,8.374,-15.4809,-12.9924,0,0,0
-0.4629,0.2852,0.8315,9.9008,-20.2977,-14.4504,0,0,0
-0.4646,0.2788,0.8174,10.2443,-25.7176,-14.1985,0,0,0
-0.4541,0.2822,0.8362,10.0229,-29.7557,-13.6565,0,0,0
-0.4329,0.2791,0.8611,8.8244,-31.5802,-14.1527,0,0,0
-0.4072,0.2786,0.885,6.8321,-31.4504,-14.6718,0,0,0
-0.3918,0.2629,0.8989,3.2748,-30.1069,-13.5573,0,0,0
-0.3833,0.2524,0.9177,0.7557,-27.6107,-10.8855,0,0,0
-0.3762,0.2505,0.9258,-0.1374,-25.4351,-9.0305,0,0,0
-0.3794,0.2556,0.9282,0.8931,-24.6489,-8.3359,0,0,0
-0.3818,0.2495,0.9299,2.626,-25.1221,-9.0611,0,0,0
-0.3896,0.2468,0.9253,6.2901,-26.3588,-9.5267,0,0,0
-0.3894,0.2444,0.9243,8.1832,-27.2214,-7.6794,0,0,0
-0.3289,0.2583,1.0007,5.5267,-20.8931,-4.1145,0,0,0
-0.3215,0.2915,0.9692,2.8092,-16.6947,-1.374,0,0,0
-0.3108,0.3105,0.9668,-1.2443,-11.6641,-1.9542,0,0,0
-0.3325,0.2988,0.9631,-4.4198,-8.6794,-3.4427,0,0,0
-0.3479,0.2678,0.949,-3.4122,-6.9542,-3.626,0,0,0
-0.3459,0.252,0.9543,-0.3817,-5.2748,-2.7786,0,0,0
-0.3223,0.2581,0.9712,2.9313,-1.5191,-0.0153,0,0,0
-0.3259,0.2976,0.9482,2.7786,1.1756,1.2137,0,0,0
-0.344,0.323,0.9399,-0.374,2.3206,0.1069,0,0,0
-0.3589,0.3167,0.9309,-3.7252,2.6183,-1.3359,0,0,0
-0.3689,0.301,0.9189,-5.9389,1.8702,-1.8626,0,0,0
-0.3704,0.2861,0.9265,-6.542,0.6565,-1.2519,0,0,0
-0.3618,0.2656,0.9399,-5.4275,0.6947,0.3435,0,0,0
-0.3423,0.2598,0.9519,-3.3206,2.7939,3.0,0,0,0
-0.3259,0.271,0.9705,-3.2137,8.1603,5.4046,0,0,0
-0.3257,0.3049,0.9614,-5.6794,13.4885,7.1374,0,0,0
-0.3333,0.3071,0.9622,-7.8092,17.9084,5.145,0,0,0
-0.3477,0.2783,0.9753,-7.0153,21.2214,3.1679,0,0,0
-0.3555,0.2639,0.9578,-5.4962,24.9618,4.4198,0,0,0
-0.3684,0.2888,0.9443,-5.0763,26.5725,5.5802,0,0,0
-0.3792,0.3042,0.9243,-5.8397,26.2443,4.5725,0,0,0
-0.4055,0.3108,0.9102,-6.9618,23.8931,2.8321,0,0,0
-0.4109,0.2893,0.9182,-8.1756,22.8931,2.2672,0,0,0
-0.3987,0.2834,0.9221,-8.916,23.0076,2.0076,0,0,0
-0.4026,0.2881,0.9221,-8.1985,22.7023,0.2137,0,0,0
-0.406,0.3015,0.9106,-8.2443,22.1221,-2.0916,0,0,0
-0.4246,0.2893,0.9094,-7.6947,20.2595,-4.3969,0,0,0
-0.4368,0.2542,0.8979,-7.1908,18.0992,-4.2824,0,0,0
-0.4365,0.2485,0.8933,-6.0382,15.9771,-3.4122,0,0,0
-0.4429,0.2451,0.8816,-3.9771,13.145,-3.3969,0,0,0
-0.4485,0.2517,0.8799,-2.7557,10.374,-3.1374,0,0,0
-0.449,0.2546,0.8818,-2.1603,8.2519,-3.4275,0,0,0
-0.4429,0.251,0.8943,-1.458,6.3053,-3.4504,0,0,0
-0.4238,0.2427,0.9094,0.1221,5.8092,-3.229,0,0,0
-0.4138,0.2505,0.905,1.7176,5.9695,-2.9771,0,0,0
-0.4143,0.2495,0.8958,2.3664,6.1985,-3.3893,0,0,0
-0.4236,0.2495,0.8997,2.0763,6.8473,-3.2748,0,0,0
-0.4158,0.2534,0.8933,1.6107,7.1527,-3.1221,0,0,0
-0.4138,0.251,0.897,0.3053,6.8931,-2.9542,0,0,0
-0.4082,0.259,0.8967,-0.9771,8.0076,-2.9924,0,0,0
-0.4082,0.2664,0.8918,-3.1603,8.5649,-3.3359,0,0,0
-0.4131,0.2585,0.8889,-4.8473,9.4198,-4.2901,0,0,0
-0.4175,0.2522,0.8826,-5.5649,9.6183,-4.8855,0,0,0
-0.4268,0.2383,0.8779,-5.3282,9.5496,-4.0305,0,0,0
-0.4285,0.2283,0.8789,-4.2672,9.2748,-2.4962,0,0,0
-0.4312,0.249,0.8745,-2.7481,8.6031,-1.6947,0,0,0
-0.4285,0.2673,0.8811,-2.7176,8.3435,-2.5496,0,0,0
-0.4385,0.2651,0.8752,-3.2824,8.2214,-3.1527,0,0,0
-0.4441,0.2676,0.8704,-3.5573,8.1908,-2.6718,0,0,0
-0.4563,0.25,0.8662,-3.4733,7.6107,-1.2824,0,0,0
-0.4556,0.2429,0.8708,-2.2443,6.6794,-0.0305,0,0,0
-0.4375,0.2549,0.8831,-0.626,6.374,0.4809,0,0,0
-0.4468,0.2605,0.877,0.9313,6.3282,0.8473,0,0,0
-0.4587,0.2754,0.8699,0.9542,6.0534,1.3359,0,0,0
-0.4653,0.2861,0.864,-0.4733,5.6412,1.5191,0,0,0
-0.4583,0.2734,0.8787,-1.7481,4.8855,2.0458,0,0,0
-0.4463,0.2766,0.8728,-1.916,5.6947,2.084,0,0,0
-0.4441,0.2727,0.8821,-1.4046,6.3053,1.8168,0,0,0
-0.4607,0.2607,0.8767,-0.0992,6.1985,1.3817,0,0,0
-0.4744,0.2576,0.8772,2.0534,5.5725,1.313,0,0,0
-0.4778,0.2632,0.8679,3.7786,4.0534,2.2901,0,0,0
-0.4736,0.2737,0.8682,3.7786,2.7786,2.2672,0,0,0
-0.4641,0.282,0.8777,2.5191,2.4046,2.5954,0,0,0
-0.4485,0.2815,0.8943,1.1145,3.1527,2.6336,0,0,0
-0.4453,0.2756,0.8884,0.7481,4.3053,2.1069,0,0,0
-0.4446,0.2744,0.8848,0.9466,5.5802,1.8321,0,0,0
-0.4536,0.272,0.8765,1.1069,5.5573,1.4656,0,0,0
-0.4624,0.262,0.887,1.687,6.2061,1.7634,0,0,0
-0.4485,0.2693,0.8723,2.1832,6.8931,1.9618,0,0,0
-0.4578,0.2698,0.8699,2.1527,7.0076,1.5344,0,0,0
-0.469,0.2678,0.8665,2.2748,6.5573,1.5725,0,0,0
-0.4639,0.2751,0.855,0.9237,5.6183,1.5038,0,0,0
-0.4622,0.2986,0.8625,-1.855,5.0382,1.4962,0,0,0
-0.4568,0.2954,0.8499,-2.5267,4.1908,-0.1069,0,0,0
-0.467,0.2866,0.8435,-2.4885,4.0763,-1.8779,0,0,0
-0.4705,0.2822,0.8401,-2.5878,3.374,-2.374,0,0,0
-0.4736,0.2737,0.8303,-1.4809,2.1985,-2.1603,0,0,0
-0.4604,0.2693,0.8433,0.2672,1.7328,-1.2748,0,0,0
-0.4119,0.3179,0.8022,0.6031,2.2901,-1.313,0,0,0
-0.4409,0.3159,1.0103,-0.7328,-2.542,-4.3359,1,0,0
-0.533,0.3027,0.7932,-2.4275,4.3282,-2.916,1,0,0
-0.4736,0.2327,0.8169,1.4275,0.8855,-0.2137,1,0,0
-0.4575,0.27,0.8542,2.855,-2.6489,-0.1069,1,0,0
-0.4087,0.2893,0.915,0.6183,-6.4046,-4.0611,1,0,0
-0.4719,0.2864,0.8352,1.8168,-4.7405,-1.9008,1,0,0
-0.4417,0.2871,0.8574,-0.771,-4.1603,-2.0229,1,0,0
-0.4597,0.2878,0.8665,-1.1756,-3.313,-2.1985,1,0,0
-0.4219,0.2605,0.9363,-4.9084,-1.7481,-6.5725,1,0,0
-0.4839,0.2151,0.8291,-4.8702,-3.4733,-2.2901,1,0,0
-0.4746,0.251,0.907,-2.0229,-4.0992,-1.855,1,0,0
-0.4424,0.24,0.8733,1.1832,-3.2977,-2.0763,1,0,0
-0.4453,0.2815,0.8809,1.5344,-2.3359,-1.8855,1,0,0
-0.4658,0.2856,0.8723,-0.4275,-2.1679,-1.5267,1,0,0
-0.4731,0.293,0.8633,-3.313,-1.855,-2.6794,1,0,0
-0.4697,0.281,0.8613,-5.626,-2.9008,-3.3435,0,0,0
-0.4705,0.2498,0.8743,-5.8321,-4.0076,-2.3893,0,0,0
-0.4719,0.2505,0.8792,-3.6183,-3.7405,-1.7023,0,0,0
-0.4619,0.2563,0.8953,-0.5496,-2.7252,-1.4733,0,0,0
-0.4641,0.2727,0.8757,0.9542,-2.6412,-1.9847,0,0,0
-0.4753,0.2808,0.8657,0.145,-3.313,-2.1908,0,0,0
-0.4807,0.2925,0.8616,-2.313,-4.5496,-2.7557,0,0,0
-0.4792,0.2766,0.8677,-4.3588,-5.8473,-3.1145,0,0,0
-0.4705,0.261,0.8713,-4.8397,-7.4351,-2.7328,0,0,0
-0.4695,0.2498,0.8745,-3.0229,-8.145,-2.0076,0,0,0
-0.4783,0.2551,0.8748,0.0305,-9.4351,-1.6718,0,0,0
-0.4934,0.2683,0.8386,2.5954,-13.4198,-2.2519,0,0,0
-0.5054,0.2769,0.8237,2.9466,-19.1603,-3.1756,0,0,0
-0.5103,0.2769,0.8066,3.3969,-26.771,-3.8931,0,0,0
-0.5078,0.2444,0.8142,4.9237,-34.8321,-3.1756,0,0,0
-0.4861,0.228,0.811,9.3969,-41.8168,-1.1298,0,0,0
-0.4395,0.2458,0.8696,13.2366,-43.9924,0.8473,0,0,0
-0.3826,0.2678,0.9009,12.8168,-39.9542,2.4504,0,0,0
-0.3374,0.3037,0.9294,10.6031,-32.9389,2.3664,0,0,0
-0.344,0.3101,0.9167,5.0763,-26.542,1.9695,0,0,0
-0.3667,0.2864,0.9304,-0.4046,-22.2672,2.6947,0,0,0
-0.3699,0.2747,0.9287,-2.4504,-18.0,4.1985,0,0,0
-0.3652,0.2712,0.917,-1.7328,-14.542,5.3282,0,0,0
-0.365,0.2676,0.9111,0.0305,-12.3588,5.2672,0,0,0
-0.3853,0.2732,0.8926,1.8092,-12.084,4.9618,0,0,0
-0.4084,0.2852,0.8845,2.1298,-13.0763,4.687,0,0,0
-0.3901,0.2827,0.8721,1.6183,-14.313,5.0687,0,0,0
-0.4021,0.2905,0.875,-0.4122,-17.3969,5.4122,0,0,0
-0.3923,0.2861,0.8918,-1.458,-17.7176,5.3588,0,0,0
-0.3716,0.2866,0.9126,-1.4046,-16.458,4.8092,0,0,0
-0.3494,0.2871,0.9082,-1.2595,-14.4733,4.1298,0,0,0
-0.3516,0.2942,0.9172,-2.9008,-11.8473,4.7557,0,0,0
-0.3547,0.2896,0.9307,-4.1603,-8.3969,5.5573,0,0,0
-0.3579,0.2927,0.9285,-3.6641,-5.4046,4.7328,0,0,0
-0.3667,0.3037,0.927,-1.9924,-3.2443,2.855,0,0,0
-0.3809,0.2827,0.9141,0.0382,-3.8015,1.8779,0,0,0
-0.397,0.2974,0.9094,0.9008,-3.6641,2.2595,0,0,0
-0.3933,0.2935,0.9165,0.6794,-3.542,2.3053,0,0,0
-0.3794,0.3127,0.9221,0.0153,-2.771,2.2595,0,0,0
-0.3738,0.3198,0.9302,-1.5954,-1.6412,1.3817,0,0,0
-0.3755,0.3235,0.9292,-4.0382,-0.5115,0.7328,0,0,0
-0.3845,0.3108,0.9177,-5.9771,0.2672,0.1069,0,0,0
-0.3928,0.2903,0.928,-6.4656,0.4809,0.1527,0,0,0
-0.3918,0.2712,0.9277,-4.8168,0.0229,0.4809,0,0,0
-0.3818,0.2786,0.9338,-2.1985,-0.0382,1.3893,0,0,0
-0.3777,0.2939,0.9321,-1.2519,0.4656,1.2595,0,0,0
-0.3813,0.3198,0.9253,-0.9313,0.1603,0.084,0,0,0
-0.2593,0.3755,0.8196,-2.9924,2.7939,2.1221,0,0,0
-0.4392,0.2827,1.0244,-1.2977,-5.9389,1.0076,0,0,0
-0.4478,0.3284,0.8955,-6.4427,8.4733,-5.0076,1,0,0
-0.3938,0.2297,0.8567,-2.855,2.2824,0.374,1,0,0
-0.3882,0.324,0.9109,-3.7481,-3.0611,-0.6107,1,0,0
-0.3975,0.2888,0.9246,-2.1298,-1.5267,-2.5878,1,0,0
-0.3838,0.3157,0.9434,-2.7176,-0.2824,-1.8473,1,0,0
-0.3428,0.3093,0.7932,-0.3435,-7.229,0.7557,1,0,0
-0.3616,0.322,0.9646,-4.084,1.2901,-1.0,1,0,0
-0.387,0.2781,0.9028,-2.2901,0.2519,-1.8092,1,0,0
-0.3899,0.2925,0.9253,-3.1679,1.0992,-1.2366,1,0,0
-0.3818,0.2891,0.9124,-3.8168,1.3588,-0.8397,1,0,0
-0.3694,0.2813,0.9207,-3.3206,1.8092,-0.5267,1,0,0
-0.3667,0.2734,0.9097,-2.0229,2.3893,-0.2061,1,0,0
-0.3728,0.2698,0.9033,-1.1679,2.2519,0.0992,1,0,0
-0.3804,0.2813,0.9023,-1.6183,1.9771,0.4046,1,0,0
-0.3779,0.2866,0.9016,-2.5802,2.145,0.6107,0,0,0
-0.3843,0.2842,0.8921,-3.6412,1.0534,0.9771,0,0,0
-0.3811,0.282,0.9102,-4.313,-0.0763,1.145,0,0,0
-0.3821,0.2842,0.8984,-3.4504,-0.8092,1.8779,0,0,0
-0.3647,0.2739,0.9084,-2.7023,-0.1603,1.4198,0,0,0
-0.3618,0.2815,0.9202,-2.0763,1.1908,1.5038,0,0,0
-0.3677,0.2822,0.9092,-2.5725,2.5954,1.7634,0,0,0
-0.374,0.2908,0.9082,-2.9084,3.6718,2.6031,0,0,0
-0.3787,0.2949,0.9045,-3.9466,3.6031,2.3511,0,0,0
-0.3813,0.2964,0.905,-4.0763,2.9847,1.7405,0,0,0
-0.3801,0.2839,0.8999,-2.8244,2.1756,0.9924,0,0,0
-0.3811,0.28,0.8987,-1.6794,1.7099,1.3206,0,0,0
-0.3787,0.2856,0.9043,-1.1374,1.2977,1.2061,0,0,0
-0.377,0.2891,0.908,-1.9389,1.1527,1.8092,0,0,0
-0.3728,0.2979,0.9141,-3.0763,2.3206,2.1145,0,0,0
-0.3701,0.2949,0.9192,-4.1298,3.6947,2.0305,0,0,0
-0.3726,0.2795,0.927,-3.2519,5.0763,2.2901,0,0,0
-0.3618,0.2798,0.948,-1.3969,7.9847,2.4885,0,0,0
-0.3623,0.2896,0.9629,0.4962,12.2061,2.4962,0,0,0
-0.3508,0.3069,0.9707,1.6031,18.3969,1.9084,0,0,0
-0.3635,0.3181,0.9741,1.7939,23.2901,1.3053,0,0,0
-0.3713,0.3242,0.9658,2.1298,27.1679,-0.9542,0,0,0
-0.3933,0.3147,0.9492,4.0458,30.3282,-2.8092,0,0,0
-0.4038,0.3066,0.9485,7.0229,32.0687,-4.0,0,0,0
-0.3994,0.3179,0.9458,10.4427,34.8931,-6.084,0,0,0
-0.4019,0.3162,0.9397,12.6565,38.0229,-8.9924,0,0,0
-0.4141,0.3186,0.9009,13.6947,38.6031,-9.458,0,0,0
-0.448,0.3188,0.8657,12.1527,36.5725,-9.3206,0,0,0
-0.459,0.3469,0.8452,9.6412,33.7252,-9.5878,0,0,0
-0.4744,0.3147,0.8274,6.6641,29.229,-9.2366,0,0,0
-0.4717,0.3171,0.8093,4.0229,24.6565,-8.5725,0,0,0
-0.4653,0.3145,0.7964,1.8779,20.5954,-8.3206,0,0,0
-0.4885,0.3118,0.7949,-1.2061,14.6565,-8.5878,0,0,0
-0.4736,0.2847,0.7939,-1.0534,10.9084,-6.9771,0,0,0
-0.4976,0.2639,0.7556,0.4198,8.9771,-6.5954,0,0,0
-0.4729,0.2991,0.8271,0.9237,4.2977,-5.5954,0,0,0
-0.4575,0.2898,0.7937,0.2901,-0.4351,-3.7557,0,0,0
-0.4685,0.2781,0.8042,-1.626,-3.3588,-1.4962,0,0,0
-0.4641,0.2749,0.8193,-4.0763,-5.9924,0.229,0,0,0
-0.4446,0.2756,0.8486,-4.8321,-6.5954,0.374,0,0,0
-0.4116,0.2666,0.8804,-2.7863,-4.3511,0.1221,0,0,0
-0.4126,0.261,0.8943,0.7939,-2.084,-0.2519,0,0,0
-0.4253,0.2659,0.8909,3.4122,-0.0229,1.0305,0,0,0
-0.4377,0.2715,0.8867,5.084,1.3282,2.374,0,0,0
-0.4407,0.2944,0.884,6.3893,2.374,2.1145,0,0,0
-0.4497,0.3066,0.8677,5.9313,2.8931,0.626,0,0,0
-0.4573,0.3135,0.8567,3.8015,1.7405,0.0763,0,0,0
-0.4553,0.3125,0.8652,0.3206,1.5038,-0.0763,0,0,0
-0.4436,0.2817,0.8684,-1.1679,2.3817,0.4427,0,0,0
-0.4326,0.2681,0.8784,1.9084,4.2366,2.1221,0,0,0
-0.4377,0.2715,0.9031,6.6489,6.4351,1.1221,0,0,0
-0.4453,0.2942,0.8955,11.5267,8.6336,0.1679,0,0,0
-0.4639,0.3315,0.8611,13.7252,10.1603,-0.458,0,0,0
-0.4851,0.3489,0.8455,10.7023,9.1374,0.0382,0,0,0
-0.4893,0.3623,0.8367,5.7023,7.3588,0.2672,0,0,0
-0.2048,0.4292,0.7798,3.3893,-4.9237,2.2977,0,0,0
-0.5779,0.3501,0.8955,6.5191,7.9237,1.7786,0,0,0
-0.5273,0.3103,0.8057,-0.9847,12.5344,-3.8092,1,0,0
-0.4685,0.3191,0.8198,3.8702,5.5954,0.1832,1,0,0
-0.4795,0.3499,0.8503,3.7939,1.5725,0.1832,1,0,0
-0.5012,0.3645,0.8215,-2.1756,0.5802,-0.3969,1,0,0
-0.4971,0.3945,0.8345,-6.229,0.3969,-2.0,1,0,0
-0.4626,0.3367,0.8501,-6.9695,-0.2519,-2.0382,1,0,0
-0.4644,0.3276,0.8589,-5.2672,-0.313,-3.084,1,0,0
-0.4656,0.3115,0.8494,-2.2137,-0.4046,-2.3359,1,0,0
-0.4973,0.3279,0.8423,-4.0687,-0.4656,-1.7786,1,0,0
-0.4775,0.3157,0.8518,-4.5191,-1.1374,-1.4733,1,0,0
-0.4463,0.2688,0.8083,-10.0382,5.3511,-4.6718,1,0,0
-0.4519,0.3071,0.8015,-3.1756,0.1985,-3.4962,1,0,0
-0.4727,0.3416,0.8853,-4.5344,-1.7786,-2.3817,1,0,0
-0.4597,0.3201,0.8425,-4.5038,-1.0382,-1.8931,1,0,0
-0.4688,0.323,0.8623,-5.1908,-0.9924,-1.458,1,0,0
-0.4651,0.2878,0.8481,-4.2672,-0.2901,-1.1527,1,0,0
-0.4583,0.2908,0.8525,-2.4351,0.2214,0.1679,1,0,0
-0.4709,0.3232,0.8457,-0.3817,-0.6031,0.9237,1,0,0
-0.4692,0.3147,0.8525,-0.4809,-0.6794,0.4656,1,0,0
-0.4634,0.3201,0.8481,-0.7786,-0.1908,-0.0382,1,0,0
-0.4663,0.3528,0.8408,-1.4733,-0.4198,0.7176,1,0,0
-0.4697,0.3267,0.8447,-3.1221,-0.6031,-0.2672,0,0,0
-0.4739,0.3359,0.8318,-4.4809,-1.9466,-0.4198,0,0,0
-0.4722,0.3157,0.8474,-4.8473,-2.3969,-0.6718,0,0,0
-0.469,0.3135,0.8477,-4.3053,-2.2748,-0.2901,0,0,0
-0.4556,0.3113,0.8577,-2.5725,-1.4198,-0.1985,0,0,0
-0.4602,0.3247,0.8599,-1.4275,-0.6489,-0.3435,0,0,0
-0.4644,0.3208,0.8608,-1.313,-0.2214,-0.4656,0,0,0
-0.469,0.3318,0.8511,-2.1679,0.7405,-0.6641,0,0,0
-0.4695,0.3015,0.8542,-1.1679,0.8779,-0.0382,0,0,0
-0.4763,0.3064,0.8503,0.6947,0.2977,0.0229,0,0,0
-0.4758,0.3149,0.8511,2.458,0.771,0.4046,0,0,0
-0.481,0.3142,0.8577,3.5573,0.6794,0.4885,0,0,0
-0.4702,0.322,0.865,3.9847,0.8779,1.0305,0,0,0
-0.467,0.3237,0.8828,3.5115,2.0916,1.542,0,0,0
-0.4663,0.3169,0.8733,4.1603,4.0687,2.4122,0,0,0
-0.4707,0.3066,0.8782,5.313,5.6565,2.5496,0,0,0
-0.467,0.3088,0.8835,7.1679,7.4351,3.1908,0,0,0
-0.4597,0.3027,0.8848,9.4122,9.5573,4.9695,0,0,0
-0.469,0.3279,0.8826,10.8015,12.1069,5.8626,0,0,0
-0.4563,0.3394,0.885,11.9313,14.3435,5.1374,0,0,0
-0.4402,0.3486,0.9009,10.4733,17.7481,5.1527,0,0,0
-0.4438,0.3457,0.8948,8.3969,22.8397,5.0687,0,0,0
-0.4607,0.3501,0.873,8.1679,26.5649,3.8168,0,0,0
-0.4966,0.3416,0.915,7.9847,26.1374,2.6031,0,0,0
-0.4651,0.3401,0.8269,10.7023,27.4809,1.5267,0,0,0
-0.488,0.3621,0.8052,12.0534,23.8092,0.1832,0,0,0
-0.5186,0.3635,0.7847,11.0,21.0611,-0.6489,0,0,0
-0.5227,0.354,0.781,9.2824,18.0763,-0.8779,0,0,0
-0.5183,0.3496,0.7749,8.4504,15.8702,-1.4962,0,0,0
-0.52,0.3618,0.7725,7.8931,12.4427,-2.8931,0,0,0
-0.5188,0.3489,0.7754,7.2137,10.145,-2.9008,0,0,0
-0.5146,0.3425,0.8159,6.2824,8.4198,-1.5496,0,0,0
-0.4941,0.3474,0.7612,6.0611,7.6412,-0.1756,0,0,0
-0.5024,0.3501,0.7849,5.9542,5.3664,-0.1145,0,0,0
-0.5188,0.3489,0.7761,4.7252,4.1145,-0.7786,0,0,0
-0.5171,0.3406,0.7761,4.1298,2.4504,-0.2977,0,0,0
-0.5188,0.3389,0.7678,3.4656,0.6641,1.3435,0,0,0
-0.5105,0.3323,0.7759,3.4962,-0.5573,2.5878,0,0,0
-0.5027,0.3369,0.7903,4.4351,-1.2519,3.1527,0,0,0
-0.4927,0.3594,0.804,5.5878,-0.5115,3.0687,0,0,0
-0.4968,0.3857,0.7988,4.2214,0.1298,1.1679,0,0,0
-0.5215,0.4131,0.7815,-0.3664,-1.1908,-1.6947,0,0,0
-0.5364,0.3977,0.7771,-6.9542,-3.3511,-2.9542,0,0,0
-0.5256,0.3606,0.7925,-11.2214,-4.542,-1.9695,0,0,0
-0.5217,0.2888,0.6582,-3.3969,-23.4962,5.3664,0,0,0
-0.1907,0.252,0.9236,2.3588,10.6947,10.2519,0,0,0
-0.5603,0.4377,0.7937,2.7252,2.1527,4.1298,0,0,0
-0.5107,0.3491,0.7488,7.2443,0.6718,2.3511,1,0,0
-0.4978,0.3999,0.825,6.4656,-2.5191,2.9695,1,0,0
-0.521,0.3906,0.7905,1.8168,-0.4351,2.0153,1,0,0
-0.5398,0.4209,0.7913,-3.8473,-1.5725,-0.8931,1,0,0
-0.5049,0.4529,0.8074,-13.0916,-2.6718,-4.0458,1,0,0
-0.5293,0.3877,0.7976,-15.8244,-5.4427,-0.7405,1,0,0
-0.4705,0.4385,0.8594,-15.3969,-1.9389,-6.8626,1,0,0
-0.4951,0.2646,0.8437,-7.3588,-2.3053,-3.6565,1,0,0
-0.5081,0.3357,0.8586,-0.9618,1.7099,0.313,1,0,0
-0.5371,0.3838,0.8098,1.0076,3.374,0.4351,1,0,0
-0.5352,0.3977,0.8115,-0.1985,2.1527,-2.0458,0,0,0
-0.5164,0.3853,0.8096,-2.4733,1.1221,-3.1527,0,0,0
-0.5222,0.3611,0.801,-2.8931,0.2901,-1.916,0,0,0
-0.5383,0.3862,0.8044,-5.0687,-1.0076,-2.2595,0,0,0
-0.5315,0.3923,0.8035,-7.4198,-1.7939,-2.7634,0,0,0
-0.5227,0.3701,0.8057,-8.3893,-2.1374,-3.3282,0,0,0
-0.5139,0.3555,0.8196,-7.4427,-1.3588,-2.6489,0,0,0
-0.5071,0.3364,0.8206,-5.2748,-0.3893,-2.0382,0,0,0
-0.5073,0.3455,0.821,-2.2672,-0.313,-1.8473,0,0,0
-0.5122,0.3557,0.8201,-1.2214,-0.3359,-2.2595,0,0,0
-0.4973,0.3457,0.834,-1.1374,0.3282,-1.5344,0,0,0
-0.4888,0.3467,0.8245,-0.8168,1.8855,-1.0229,0,0,0
-0.4912,0.3435,0.8372,-0.0153,3.2137,-1.4656,0,0,0
-0.5005,0.3406,0.8208,0.8626,3.6565,-1.0153,0,0,0
-0.5093,0.3367,0.8271,2.6794,4.4046,0.2519,0,0,0
-0.5139,0.3328,0.8176,4.8321,5.1756,0.9618,0,0,0
-0.5081,0.3479,0.8181,7.7481,6.4046,1.2977,0,0,0
-0.5103,0.3718,0.8215,8.3511,6.7863,0.3053,0,0,0
-0.5156,0.3792,0.8228,8.2748,8.3206,-0.7939,0,0,0
-0.5159,0.3735,0.8223,7.145,9.4962,-0.9084,0,0,0
-0.5032,0.3623,0.8252,7.5725,11.626,-1.0382,0,0,0
-0.5027,0.3535,0.8311,9.6489,13.3511,-1.1908,0,0,0
-0.5149,0.3635,0.8079,11.8015,14.3893,-1.1221,0,0,0
-0.5198,0.395,0.8032,12.4504,15.2824,-2.145,0,0,0
-0.5098,0.395,0.7954,11.1374,17.0611,-4.6641,0,0,0
-0.5173,0.3794,0.7959,9.9466,18.4275,-5.8168,0,0,0
-0.5457,0.3755,0.7725,9.4885,17.4046,-6.3206,0,0,0
-0.5903,0.3799,0.7671,6.6336,13.0229,-7.0382,0,0,0
-0.5269,0.3833,0.7527,6.6183,15.1908,-7.2595,0,0,0
-0.54,0.385,0.7788,5.2672,12.0305,-6.9389,0,0,0
-0.5583,0.373,0.7451,4.3969,11.4122,-6.0763,0,0,0
-0.5576,0.3755,0.7554,3.7863,9.5725,-4.5496,0,0,0
-0.5535,0.3557,0.7642,3.9084,9.1374,-3.6183,0,0,0
-0.5466,0.3525,0.7722,6.9618,9.6947,-3.8397,0,0,0
-0.564,0.3687,0.7534,8.5038,8.3435,-3.7786,0,0,0
-0.5801,0.3582,0.7458,7.0,6.0382,-1.9313,0,0,0
-0.5789,0.353,0.7617,5.9466,4.6565,1.313,0,0,0
-0.5681,0.3708,0.7573,5.4275,3.1069,3.687,0,0,0
-0.561,0.3999,0.77,5.0382,2.0153,2.8092,0,0,0
-0.5608,0.4038,0.78,4.1145,2.0763,2.1145,0,0,0
-0.5508,0.4063,0.7922,3.2901,3.0305,0.8855,0,0,0
-0.5444,0.4016,0.7881,1.3893,3.9084,0.6412,0,0,0
-0.5344,0.373,0.7996,1.6412,5.4733,1.8473,0,0,0
-0.5356,0.3887,0.7849,1.7023,6.6183,2.0305,0,0,0
-0.5481,0.385,0.7759,2.7481,7.2748,1.5496,0,0,0
-0.5532,0.3916,0.7468,2.4198,6.5954,0.1603,0,0,0
-0.5586,0.3904,0.7305,0.0916,4.7252,-0.9695,0,0,0
-0.5615,0.3835,0.7178,-2.2595,3.3893,-0.7863,0,0,0
-0.5625,0.3643,0.7253,-4.1908,1.7328,-0.2137,0,0,0
-0.498,0.3096,0.7207,-2.3588,1.2824,3.4962,0,0,0
-0.4028,0.3804,0.8289,3.8626,1.2901,5.2748,0,0,0
-0.6155,0.5801,0.8955,-3.1603,4.7099,-6.0687,1,0,0
-0.5085,0.2563,0.6895,4.4427,2.4275,4.855,1,0,0
-0.6096,0.2805,0.6648,1.0687,-2.2519,7.3893,1,0,0
-0.5693,0.3784,0.6982,2.1374,-1.4504,0.7328,1,0,0
-0.5337,0.4048,0.7275,-4.7405,-4.5649,-1.084,1,0,0
-0.5049,0.4727,0.7456,-10.7634,-2.9389,-2.1756,1,0,0
-0.5383,0.3928,0.7422,-15.1298,-2.7328,-0.9847,1,0,0
-0.6104,0.3972,0.7432,-14.1374,-5.5038,-0.3969,1,0,0
-0.5151,0.5005,0.8313,-10.2977,-4.1374,-9.4656,1,0,0
-0.5327,0.292,0.7717,-3.6794,-4.626,-0.6336,1,0,0
-0.5662,0.3982,0.7871,0.2519,0.3817,-0.3053,1,0,0
-0.5608,0.3943,0.7451,-0.8473,-0.0611,0.5725,1,0,0
-0.5645,0.4136,0.7502,-2.4809,-0.6183,-1.8321,1,0,0
-0.5547,0.3962,0.7463,-4.0382,-2.6336,-1.2366,0,0,0
-0.5708,0.4158,0.7498,-5.1527,-3.0992,-0.9618,0,0,0
-0.5625,0.4253,0.75,-7.2366,-4.4122,-1.9008,0,0,0
-0.5742,0.407,0.7512,-8.0076,-5.3893,-2.5725,0,0,0
-0.5718,0.3855,0.7598,-8.3435,-5.5115,-2.626,0,0,0
-0.5569,0.3677,0.7761,-6.0076,-4.3435,-1.2137,0,0,0
-0.5493,0.3818,0.7803,-3.5038,-3.9542,-0.9008,0,0,0
-0.5552,0.4092,0.7656,-3.4733,-4.4275,-2.1832,0,0,0
-0.5566,0.4026,0.7639,-5.0992,-4.6489,-3.1603,0,0,0
-0.554,0.3953,0.7708,-6.7481,-4.9771,-3.0611,0,0,0
-0.5466,0.3823,0.7749,-7.1603,-5.145,-3.1985,0,0,0
-0.5476,0.3655,0.7842,-6.7328,-5.3511,-3.2137,0,0,0
-0.5413,0.3689,0.7832,-5.3359,-4.6718,-2.9237,0,0,0
-0.5383,0.3696,0.781,-4.8855,-4.6718,-2.3359,0,0,0
-0.5452,0.374,0.7664,-5.687,-5.2443,-2.2366,0,0,0
-0.5466,0.3928,0.7546,-8.1985,-7.0534,-3.1985,0,0,0
-0.5544,0.3726,0.751,-11.9695,-9.5954,-2.5954,0,0,0
-0.5469,0.3599,0.7637,-14.5573,-11.5725,-1.1069,0,0,0
-0.5452,0.3713,0.7588,-16.084,-14.1985,-0.4809,0,0,0
-0.552,0.3809,0.7493,-18.0,-17.6489,-1.1527,0,0,0
-0.5635,0.3923,0.7131,-21.4656,-22.3359,-1.6412,0,0,0
-0.5811,0.4026,0.7004,-26.7252,-29.3969,-2.0458,0,0,0
-0.6011,0.3772,0.6892,-31.1374,-38.8244,-0.6107,0,0,0
-0.5906,0.3206,0.7061,-32.9389,-48.1679,3.9466,0,0,0
-0.5908,0.1931,0.7,-28.2443,-58.9237,12.5496,0,0,0
-0.5359,0.2729,0.7332,-20.0076,-67.0611,20.3282,0,0,0
-0.5188,0.3159,0.7468,-14.1679,-72.1832,19.1298,0,0,0
-0.457,0.4114,0.7649,-9.3435,-76.6947,10.0763,0,0,0
-0.4792,0.2935,0.853,-7.7328,-76.2519,3.9313,0,0,0
-0.4529,0.3728,0.832,-9.6107,-75.9466,5.6031,0,0,0
-0.425,0.3408,0.8569,-9.9771,-68.9847,9.4122,0,0,0
-0.3843,0.2988,0.8911,-10.8321,-63.3435,16.8702,0,0,0
-0.3931,0.3003,0.8921,-11.7786,-60.1908,22.4046,0,0,0
-0.4072,0.2927,0.8435,-12.7634,-61.8092,29.1908,0,0,0
-0.4397,0.3484,0.8442,-14.3588,-67.0687,32.458,0,0,0
-0.4236,0.3835,0.8628,-18.2672,-67.5878,26.7481,0,0,0
-0.2576,0.3999,0.9927,-19.8168,-61.2595,11.3282,0,0,0
-0.302,0.2957,0.9634,-13.4046,-47.4885,7.6031,0,0,0
-0.3506,0.3748,0.95,-11.0382,-37.6489,5.3435,0,0,0
-0.2834,0.3843,1.0295,-10.4733,-25.7023,4.3664,0,0,0
-0.2888,0.3555,1.0063,-9.4962,-18.6641,4.5191,0,0,0
-0.3157,0.3572,0.9861,-10.2214,-10.2061,2.542,0,0,0
-0.3188,0.3286,0.9446,-14.0916,-7.0992,3.8321,0,0,0
-0.3433,0.3345,0.9556,-15.0305,-2.6183,0.4656,0,0,0
-0.3125,0.321,0.9683,-12.4809,1.5267,-2.7176,0,0,0
-0.3442,0.3315,0.9485,-9.6794,2.9847,-4.5344,0,0,0
-0.3611,0.3232,0.9443,-9.2366,4.2595,-5.5115,0,0,0
-0.3801,0.3291,0.9138,-10.084,5.916,-6.1069,0,0,0
-0.3772,0.3159,0.9102,-13.4504,5.7786,-5.855,0,0,0
-0.3816,0.3254,0.8906,-17.0153,3.1832,-5.1527,0,0,0
-0.3826,0.3064,0.8977,-18.4275,-0.9008,-4.313,0,0,0
-0.3721,0.2944,0.9097,-18.626,-3.9466,-3.4656,0,0,0
-0.3574,0.3057,0.9136,-17.2214,-5.916,-3.4122,0,0,0
-0.3438,0.3115,0.9253,-15.8626,-6.3359,-3.9313,0,0,0
-0.3301,0.3262,0.9355,-14.3664,-5.2748,-4.3435,0,0,0
-0.3345,0.3311,0.9219,-13.2366,-4.2977,-5.0458,0,0,0
-0.3379,0.3315,0.908,-12.5267,-4.3282,-5.4733,0,0,0
-0.3433,0.3318,0.9126,-12.2214,-5.4885,-5.771,0,0,0
-0.3484,0.3311,0.8918,-12.6412,-6.9313,-5.3359,0,0,0
-0.3472,0.3445,0.875,-14.2137,-9.5038,-6.1145,0,0,0
-0.3452,0.3567,0.8674,-16.8092,-13.1985,-6.9618,0,0,0
-0.3616,0.3599,0.8655,-21.4351,-17.8015,-7.3053,0,0,0
-0.3694,0.3667,0.8442,-27.458,-22.6031,-7.5496,0,0,0
-0.3723,0.3723,0.8606,-33.0229,-26.7634,-10.0458,0,0,0
-0.3589,0.3501,0.8662,-37.7023,-29.5802,-11.1145,0,0,0
-0.3413,0.2859,0.8975,-36.7634,-32.3282,-10.7863,0,0,0
-0.3298,0.249,0.9097,-30.9008,-33.6794,-10.8015,0,0,0
-0.3337,0.2539,0.9163,-21.6565,-34.6107,-9.9008,0,0,0
-0.3193,0.2195,0.9348,-13.4046,-37.1527,-9.8855,0,0,0
-0.3203,0.2524,0.9482,-4.542,-35.8473,-9.8321,0,0,0
-0.3013,0.1873,0.9502,-0.9389,-41.1985,-3.4198,0,0,0
-0.271,0.1917,0.9792,2.542,-39.4962,-2.0382,0,0,0
-0.2544,0.2739,0.9976,4.1145,-34.771,-2.1298,0,0,0
-0.2451,0.2859,0.9866,-1.3664,-34.6336,-3.0,0,0,0
-0.2212,0.2793,0.9963,-4.9924,-29.626,-4.3969,0,0,0
-0.2273,0.2383,0.991,-9.7557,-28.542,-3.7176,0,0,0
-0.2561,0.2053,1.0024,-10.0076,-22.8473,-3.6718,0,0,0
-0.2463,0.1765,0.9924,-7.9084,-19.6794,-1.3206,0,0,0
-0.2314,0.1611,0.998,-2.9313,-17.2824,-0.4504,0,0,0
-0.2358,0.1709,0.9905,-0.7786,-16.9466,0.1832,0,0,0
-0.2488,0.1821,0.967,-0.0458,-17.6565,3.0992,0,0,0
-0.2617,0.2017,0.9609,-1.916,-18.1679,4.4962,0,0,0
-0.2678,0.2222,0.9783,-5.4122,-18.7405,3.9008,0,0,0
-0.2227,0.2095,0.9956,-6.8015,-18.1221,3.4275,0,0,0
-0.2136,0.2092,0.9976,-7.2672,-17.1527,3.5954,0,0,0
-0.2354,0.2104,0.998,-6.8855,-14.6947,2.1679,0,0,0
-0.2283,0.2261,0.9866,-7.3435,-14.0687,2.4733,0,0,0
-0.2329,0.2236,0.9819,-7.2595,-13.1908,1.9389,0,0,0
-0.2361,0.2227,0.9753,-7.458,-15.313,2.7634,0,0,0
-0.2351,0.2363,0.9805,-7.084,-15.542,3.2519,0,0,0
-0.2192,0.22,0.9819,-5.8168,-15.374,4.1908,0,0,0
-0.2312,0.2419,1.0027,-2.8702,-12.3969,2.5802,0,0,0
-0.1982,0.2383,0.9966,-0.9084,-11.084,3.0534,0,0,0
-0.2065,0.2449,0.9907,1.626,-8.4351,2.4275,0,0,0
-0.2166,0.2461,0.9868,0.9313,-6.5191,2.9618,0,0,0
-0.2161,0.2791,0.9866,-0.3588,-4.5038,2.4198,0,0,0
-0.2053,0.2913,0.9827,-2.9618,-2.7099,0.9771,0,0,0
-0.2029,0.2898,0.9856,-5.6718,-2.1679,-0.4275,0,0,0
-0.2092,0.2637,0.9802,-6.9389,-1.3817,-1.6412,0,0,0
-0.2029,0.2383,0.9871,-5.6947,-0.8855,-1.8779,0,0,0
-0.1924,0.2278,0.9841,-3.0687,-0.0763,-1.4809,0,0,0
-0.1929,0.2307,0.9844,-0.5115,1.2366,-1.0153,0,0,0
-0.1929,0.2495,0.9695,0.687,2.2672,-0.4809,0,0,0
-0.198,0.2671,0.9695,-0.0763,2.7634,-1.8779,0,0,0
-0.2109,0.2571,0.9629,-0.8168,2.2366,-2.5038,0,0,0
-0.2131,0.25,0.959,-1.4962,1.7099,-2.1756,0,0,0
-0.2161,0.2446,0.9529,-1.542,0.9924,-2.229,0,0,0
-0.2197,0.2405,0.9546,-1.2824,-0.4885,-1.6718,0,0,0
-0.219,0.2419,0.9636,-0.1221,-1.9466,-0.9771,0,0,0
-0.2124,0.2542,0.9634,0.2595,-2.5496,-0.4885,0,0,0
-0.2046,0.2634,0.9678,-0.4962,-2.6947,-1.1832,0,0,0
-0.2097,0.2646,0.9727,-0.855,-2.3893,-1.8779,0,0,0
-0.2087,0.2644,0.9734,-1.8702,-2.5725,-2.4504,0,0,0
-0.2078,0.2583,0.9817,-1.9618,-2.855,-2.916,0,0,0
-0.2083,0.2415,0.979,-1.8931,-3.1756,-2.313,0,0,0
-0.2102,0.2539,0.9712,-1.0916,-3.4046,-2.1298,0,0,0
-0.2056,0.2561,0.9812,-1.7176,-3.4427,-2.6336,0,0,0
-0.2043,0.2405,0.9849,-0.855,-3.0992,-2.8168,0,0,0
-0.1995,0.2471,0.9856,-0.5878,-1.9389,-2.1679,0,0,0
-0.1987,0.2534,0.9709,-0.7786,-1.3282,-3.0534,0,0,0
-0.2019,0.2563,0.9729,-1.3435,-1.4656,-3.5878,0,0,0
-0.2083,0.2468,0.9678,-2.9466,-1.8931,-3.5802,0,0,0
-0.2126,0.241,0.9722,-2.7634,-2.145,-3.2443,0,0,0
-0.2061,0.2388,0.9656,-2.2748,-2.9847,-3.5344,0,0,0
-0.2073,0.2349,0.9636,-1.5649,-3.8092,-3.771,0,0,0
-0.2092,0.2405,0.9734,-0.9237,-4.2824,-3.8092,0,0,0
-0.208,0.2417,0.9697,-1.145,-4.2137,-3.4122,0,0,0
-0.2102,0.2344,0.9697,-1.6183,-4.5878,-2.9389,0,0,0
-0.2007,0.2278,0.9741,-1.2977,-5.0992,-1.8702,0,0,0
-0.2004,0.2366,0.9719,-0.9237,-5.1527,-1.8931,0,0,0
-0.1965,0.2358,0.9802,-0.6489,-5.0,-2.1069,0,0,0
-0.2063,0.2412,0.9824,-0.7099,-3.6183,-2.1145,0,0,0
-0.1963,0.2488,0.9785,-1.7023,-3.0611,-1.3893,0,0,0
-0.2046,0.2578,0.9788,-2.3969,-2.7863,-2.1374,0,0,0
-0.2041,0.24,0.9741,-3.1374,-3.1603,-2.145,0,0,0
-0.2048,0.2332,0.9756,-2.6412,-3.5267,-1.5115,0,0,0
-0.2212,0.2781,0.9727,-1.4733,-2.4504,-3.0076,0,0,0
-0.1936,0.2339,0.988,-1.1603,-3.9847,-1.3893,0,0,0
-0.2,0.25,0.9814,-0.8855,-2.5496,-1.9389,0,0,0
-0.2136,0.2515,0.9822,-2.2519,-2.7405,-2.542,0,0,0
-0.2056,0.2305,0.9763,-3.3893,-2.9466,-2.5344,0,0,0
-0.1978,0.2432,0.9949,-2.8779,-1.4198,-1.9771,0,0,0
-0.2014,0.2305,0.9819,-1.8779,-1.5725,-2.771,0,0,0
-0.2058,0.2253,0.9854,-1.2443,-1.6641,-2.1527,0,0,0
-0.2141,0.2383,0.9736,-0.4198,-2.3664,-2.0916,0,0,0
-0.2046,0.2422,0.9778,-0.7863,-3.1374,-1.6031,0,0,0
-0.2024,0.2456,0.9773,-1.1603,-3.1603,-2.1832,0,0,0
-0.199,0.2312,0.9749,-2.0916,-3.0763,-1.6031,0,0,0
-0.199,0.2378,0.9788,-2.6565,-2.2519,-0.8015,0,0,0
-0.1965,0.2351,0.9856,-2.8626,-1.9084,-1.1298,0,0,0
-0.1948,0.2244,0.9861,-1.7252,-1.9008,-0.8397,0,0,0
-0.198,0.2253,0.9778,-0.9466,-2.0,-0.4656,0,0,0
-0.2095,0.2292,0.9709,-0.9771,-2.5954,-1.4656,0,0,0
-0.2002,0.2566,0.991,-1.084,-2.3511,-0.9695,0,0,0
-0.2078,0.2554,0.9812,-1.9313,-2.7786,-1.2519,0,0,0
-0.1948,0.2532,0.9883,-2.4046,-2.2443,-1.9924,0,0,0
-0.1895,0.2561,0.9934,-2.7252,-0.9542,-2.8321,0,0,0
-0.1936,0.2361,0.9858,-3.0687,-0.5496,-2.8702,0,0,0
-0.1958,0.2378,0.9883,-2.2214,0.0611,-2.2443,0,0,0
-0.2051,0.2441,0.9805,-2.084,0.2137,-1.4809,0,0,0
-0.2083,0.2449,0.9736,-2.3282,-0.4046,-1.4656,0,0,0
-0.2068,0.2505,0.9668,-3.2214,-1.3359,-1.458,0,0,0
-0.2012,0.2502,0.9597,-4.4198,-2.855,-1.3969,0,0,0
-0.2058,0.2637,0.9565,-6.3511,-3.1603,-2.2595,0,0,0
-0.1797,0.239,0.9668,-7.5191,-3.9618,-0.771,0,0,0
-0.1714,0.2288,0.9805,-7.2061,-1.9542,-0.8168,0,0,0
-0.1931,0.2615,0.9719,-5.2366,0.5802,-2.6336,0,0,0
-0.1892,0.2324,0.9768,-3.6336,-0.1985,-1.3664,0,0,0
-0.1892,0.2275,0.9734,-1.6641,0.5115,-1.8244,0,0,0
-0.1987,0.2358,0.9551,-0.4427,0.0916,-1.6412,0,0,0
-0.2063,0.2405,0.9551,-0.229,-1.4122,-1.4122,0,0,0
-0.1975,0.2292,0.9609,-0.3893,-2.7099,-1.7786,0,0,0
-0.1965,0.228,0.9661,-0.2366,-3.9847,-1.2748,0,0,0
-0.1956,0.2314,0.9775,-0.9389,-4.2977,-0.6718,0,0,0
-0.1995,0.2385,0.979,-2.2366,-3.916,-0.5954,0,0,0
-0.1985,0.2415,0.9817,-2.9237,-4.687,-1.0534,0,0,0
-0.1929,0.2388,0.9883,-3.5802,-4.7863,-1.1603,0,0,0
-0.1914,0.2402,0.9897,-3.7252,-4.9389,-1.0,0,0,0
-0.187,0.2285,0.9983,-3.8015,-4.1374,-1.3206,0,0,0
-0.1868,0.2302,0.9978,-2.5649,-3.4198,-1.4122,0,0,0
-0.1882,0.2271,0.9988,-1.7557,-2.9695,-1.9771,0,0,0
-0.1763,0.2214,1.0037,-0.8473,-2.626,-0.6947,0,0,0
-0.1787,0.2295,0.9937,-0.2977,-1.5802,-1.2977,0,0,0
-0.1831,0.2329,0.9905,-0.4656,-1.1298,-1.3893,0,0,0
-0.1887,0.231,0.9819,-0.8931,-0.7328,-1.1145,0,0,0
-0.1958,0.2415,0.9753,-1.1679,-1.4122,-1.3969,0,0,0
-0.1931,0.2334,0.9644,-1.7099,-1.7634,-1.8244,0,0,0
-0.1919,0.2324,0.9819,-2.4122,-2.6183,-1.2595,0,0,0
-0.1926,0.2292,0.988,-2.6489,-3.4504,-0.9847,0,0,0
-0.1838,0.2307,0.9871,-1.9466,-3.0458,-0.542,0,0,0
-0.1858,0.23,0.9937,-1.0611,-2.9084,-1.0076,0,0,0
-0.1902,0.239,0.9924,-0.1298,-1.8397,-0.8244,0,0,0
-0.1992,0.2444,0.9858,-0.3053,-2.0992,-1.3969,0,0,0
-0.1936,0.2473,0.9856,-1.1603,-1.8015,-1.7557,0,0,0
-0.1953,0.2439,0.9761,-1.4351,-2.0305,-1.6641,0,0,0
-0.1855,0.2346,0.989,-1.9389,-2.4275,-1.4656,0,0,0
-0.1816,0.2334,0.9858,-1.4427,-2.4733,-1.3359,0,0,0
-0.1787,0.2307,0.9851,-1.0,-2.0687,-0.4733,0,0,0
-0.1956,0.2446,0.978,-1.2366,-1.6336,-0.8244,0,0,0
-0.1838,0.2375,0.989,-1.1069,-2.3893,-0.4885,0,0,0
-0.1848,0.2449,0.9888,-0.7023,-1.9924,-0.7099,0,0,0
-0.1899,0.2402,0.9839,-0.5115,-2.5802,-0.9771,0,0,0
-0.1868,0.2419,0.9861,-0.626,-2.6412,-0.7405,0,0,0
-0.1829,0.2488,0.9954,-1.1145,-1.9084,-0.4046,0,0,0
-0.1804,0.2524,0.9971,-2.2214,-1.1832,-0.4962,0,0,0
-0.186,0.2388,0.9919,-2.6641,-0.4046,-0.9618,0,0,0
-0.1948,0.2332,0.991,-2.084,-0.4351,-0.6947,0,0,0
-0.1897,0.2346,0.9856,-1.145,-0.9924,-0.5954,0,0,0
-0.1809,0.2441,0.9963,0.1603,-1.4809,-0.9618,0,0,0
-0.1748,0.2463,0.9883,0.855,-1.0458,-1.5191,0,0,0
-0.1738,0.2461,0.9919,0.916,0.6183,-2.3282,0,0,0
-0.1768,0.2444,0.9805,-0.313,1.1756,-2.3588,0,0,0
-0.1887,0.2415,0.9761,-1.0763,1.2748,-2.3282,0,0,0
-0.1885,0.2407,0.9741,-1.6565,0.7557,-1.8092,0,0,0
-0.1863,0.2263,0.9807,-1.4962,0.0305,-1.9466,0,0,0
-0.1787,0.2187,0.9785,-0.4427,-0.2519,-0.9389,0,0,0
-0.1858,0.238,0.9788,0.313,-0.2366,-0.7939,0,0,0
-0.1919,0.2456,0.9746,-0.6641,-0.7328,-0.9542,0,0,0
-0.1909,0.2488,0.9714,-1.687,-0.6718,-1.542,0,0,0
-0.1758,0.2407,0.981,-2.6412,-0.3511,-1.7405,0,0,0
-0.1768,0.2427,0.9817,-2.3206,-0.0611,-1.9618,0,0,0
-0.1865,0.2385,0.9629,-2.6565,-0.1298,-2.313,0,0,0
-0.1833,0.2383,0.9753,-2.4198,0.0611,-2.2901,0,0,0
-0.1851,0.2341,0.9761,-2.0153,0.0916,-1.9771,0,0,0
-0.1865,0.231,0.9749,-1.2519,0.0763,-1.8626,0,0,0
-0.1943,0.2288,0.9666,-1.1221,-0.6031,-1.7939,0,0,0
-0.1943,0.2317,0.97,-1.1908,-1.7634,-1.1985,0,0,0
-0.1865,0.2366,0.9763,-1.9313,-2.2519,-0.7176,0,0,0
-0.1707,0.2361,0.9792,-2.4885,-2.1374,-0.0382,0,0,0
-0.1797,0.2563,0.9893,-2.8168,-0.7634,-1.2366,0,0,0
-0.1729,0.2366,1.0,-3.0687,-0.4656,-1.1908,0,0,0
-0.1826,0.2292,0.9878,-2.4351,0.855,-1.4275,0,0,0
-0.1873,0.2329,0.9797,-1.9389,0.8931,-1.1832,0,0,0
-0.1965,0.2312,0.9778,-1.6794,0.6794,-1.229,0,0,0
-0.1943,0.2407,0.9763,-2.0687,-0.6031,-1.0458,0,0,0
-0.1877,0.2356,0.9854,-2.8473,-0.771,-0.542,0,0,0
-0.1821,0.2378,0.9773,-3.374,-0.6718,-0.6183,0,0,0
-0.1863,0.2388,0.978,-3.3435,-0.6489,-1.2137,0,0,0
-0.1936,0.229,0.9834,-3.7023,-0.3893,-0.8626,0,0,0
-0.1968,0.2224,0.9802,-2.855,-0.2519,-0.6183,0,0,0
-0.1997,0.2212,0.9795,-2.084,-0.7405,-0.145,0,0,0
-0.1973,0.22,0.981,-1.145,-1.8015,0.7023,0,0,0
-0.1897,0.2393,0.9861,-1.1679,-1.8626,0.687,0,0,0
-0.1826,0.2463,0.9907,-1.542,-1.5649,0.3435,0,0,0
-0.1855,0.2397,0.9927,-1.9542,-0.542,-0.2137,0,0,0
-0.1877,0.2285,0.9915,-1.3206,-0.2672,0.1221,0,0,0
-0.1877,0.2319,0.9915,-0.916,-0.1069,-0.0687,0,0,0
-0.187,0.2466,0.9905,-1.229,-0.0229,-0.1527,0,0,0
-0.1917,0.2466,0.9829,-1.8855,-0.3817,-0.2977,0,0,0
-0.1875,0.2554,0.978,-3.2443,-0.0763,-0.0076,0,0,0
-0.1865,0.2502,0.9792,-4.1756,0.145,-0.4504,0,0,0
-0.1919,0.2349,0.9751,-4.5878,-0.3817,-0.9695,0,0,0
-0.1858,0.231,0.9753,-3.5954,-0.9237,-0.6336,0,0,0
-0.1838,0.2302,0.9763,-2.8855,-1.3817,-0.5725,0,0,0
-0.1772,0.23,0.9836,-1.9847,-0.6107,0.0534,0,0,0
-0.1831,0.238,0.9775,-1.2214,-0.4046,0.0382,0,0,0
-0.1919,0.2444,0.9805,-0.458,-0.5954,-0.626,0,0,0
-0.1948,0.2495,0.9771,-0.4809,-0.626,-0.8779,0,0,0
-0.1946,0.2537,0.9812,-1.7176,-0.9389,-0.7328,0,0,0
-0.1926,0.2498,0.9871,-2.3206,-1.4351,-1.3511,0,0,0
-0.1833,0.2419,0.9963,-2.7634,-1.7405,-0.9084,0,0,0
-0.1804,0.2371,0.9971,-2.9237,-1.3435,-0.5191,0,0,0
-0.1743,0.24,0.9971,-2.771,-0.2366,-1.3053,0,0,0
-0.1782,0.2356,0.9949,-2.374,0.3206,-2.3282,0,0,0
-0.1824,0.2268,0.9915,-2.3969,0.4809,-1.7786,0,0,0
-0.1875,0.229,0.9875,-2.2901,0.542,-0.7557,0,0,0
-0.1941,0.2305,0.9824,-2.313,-0.3435,-1.2519,0,0,0
-0.1897,0.2314,0.9878,-1.855,-0.7328,-0.7176,0,0,0
-0.1814,0.2251,0.9998,-1.5878,-0.1832,-0.0916,0,0,0
-0.1763,0.2349,0.9905,-0.9847,0.7939,0.1603,0,0,0
-0.1743,0.241,0.9915,-0.9924,1.2748,-0.3588,0,0,0
-0.1868,0.2307,0.9863,-0.7099,1.8321,-1.0916,0,0,0
-0.1892,0.2261,0.9807,-0.7939,1.3588,-0.4198,0,0,0
-0.1951,0.2334,0.9702,-0.9542,1.229,-0.1069,0,0,0
-0.2007,0.2339,0.969,-2.145,0.2061,-0.687,0,0,0
-0.1926,0.2297,0.9805,-2.4733,-0.6489,-0.229,0,0,0
-0.1858,0.2239,0.9841,-2.7328,-0.5573,0.6718,0,0,0
-0.186,0.2185,0.9763,-1.8931,-0.5802,0.9313,0,0,0
-0.1863,0.2263,0.9829,-0.8244,-0.3893,0.8855,0,0,0
-0.1873,0.2285,0.9856,-0.2214,0.3053,0.8626,0,0,0
-0.1897,0.2332,0.9878,-0.0916,0.5725,1.0916,0,0,0
-0.1899,0.2336,0.9746,-1.1069,0.6412,1.0,0,0,0
-0.1926,0.2322,0.9797,-1.4351,0.3053,1.1832,0,0,0
-0.1953,0.2402,1.0039,-1.1985,-1.8092,2.7557,0,0,0
-0.1714,0.2227,0.9937,-2.8779,1.1527,0.8702,0,0,0
-0.1807,0.2134,0.9941,-2.5573,1.9008,3.0992,0,0,0
-0.188,0.2307,0.9988,-3.771,3.4504,3.1603,0,0,0
-0.1772,0.2187,1.0105,-4.4656,4.7328,3.8397,0,0,0
-0.175,0.2268,1.0227,-3.7099,7.6565,5.7328,0,0,0
-0.1616,0.2019,1.0249,-4.1145,11.7099,6.6031,0,0,0
-0.1423,0.2161,1.0713,-4.9695,21.0611,10.8168,0,0,0
-0.1333,0.2314,1.0625,-9.4351,30.5191,13.8702,0,0,0
-0.1355,0.2461,1.0574,-13.1069,39.3588,14.5267,0,0,0
-0.1577,0.2378,1.0308,-16.4275,45.3969,16.1069,0,0,0
-0.1758,0.241,1.031,-18.9237,51.2366,16.4122,0,0,0
-0.1921,0.2329,1.0129,-18.6489,55.1603,14.5649,0,0,0
-0.2288,0.2183,0.99,-15.6794,56.1374,11.1374,0,0,0
-0.2656,0.1914,0.9534,-11.3435,53.3206,10.145,0,0,0
-0.2874,0.1807,0.9778,-4.9924,49.2595,9.3359,0,0,0
-0.2856,0.1831,0.9666,-1.6718,48.6947,11.4198,0,0,0
-0.2717,0.199,0.9719,-0.1603,48.9084,14.3893,0,0,0
-0.2654,0.2124,0.9924,-2.0534,50.8855,17.1832,0,0,0
-0.2949,0.2119,0.9395,-6.4656,53.374,20.0382,0,0,0
-0.2854,0.2234,0.9705,-10.0305,54.626,21.542,0,0,0
-0.2932,0.1909,0.937,-11.5878,50.9542,24.0382,0,0,0
-0.3354,0.1821,0.9172,-11.458,45.3817,26.3511,0,0,0
-0.3669,0.1431,0.8936,-10.9313,39.916,31.1221,0,0,0
-0.3523,0.1526,0.9258,-10.3053,36.2672,39.8321,0,0,0
-0.3408,0.1663,0.8828,-11.5344,31.2595,48.4198,0,0,0
-0.3574,0.1829,0.8821,-14.5649,24.2519,52.9313,0,0,0
-0.3604,0.1792,0.8752,-15.6183,16.8397,55.9695,0,0,0
-0.332,0.1697,0.8784,-15.8397,11.5496,60.1832,0,0,0
-0.322,0.2705,0.918,-17.8168,9.9466,57.1832,0,0,0
-0.292,0.241,0.9426,-15.4122,12.3664,46.3511,0,0,0
-0.293,0.2673,0.9795,-9.1679,15.2061,38.3359,0,0,0
-0.3027,0.2461,0.9512,-3.4351,20.1145,34.1603,0,0,0
-0.3267,0.2585,0.9246,0.6183,20.1145,31.4885,0,0,0
-0.3425,0.25,0.9116,4.4962,18.3588,29.2672,0,0,0
-0.3687,0.2598,0.8572,5.458,14.2824,28.0992,0,0,0
-0.3713,0.2263,0.8923,2.855,8.2061,29.4656,0,0,0
-0.3472,0.2644,0.886,-1.6718,5.4962,32.4427,0,0,0
-0.3247,0.2947,0.8857,-9.0763,5.5649,33.0687,0,0,0
-0.324,0.3149,0.9077,-15.1221,4.6031,28.8779,0,0,0
-0.3269,0.281,0.9109,-16.374,3.9008,23.9695,0,0,0
-0.3359,0.2534,0.9221,-15.3664,4.3206,23.8702,0,0,0
-0.3296,0.2339,0.9263,-14.4122,5.2519,26.7405,0,0,0
-0.3267,0.2339,0.9192,-10.5573,5.8702,28.0076,0,0,0
-0.3481,0.249,0.8855,-8.8015,4.458,27.313,0,0,0
-0.3616,0.2683,0.9194,-9.0,1.9924,27.2366,0,0,0
-0.3364,0.259,0.9285,-8.7023,1.4198,27.4046,0,0,0
-0.3213,0.2334,0.9443,-8.9924,1.8473,28.4809,0,0,0
-0.3096,0.2437,0.9548,-9.1908,3.1832,30.542,0,0,0
-0.311,0.2263,0.958,-9.0229,4.3817,32.0382,0,0,0
-0.312,0.251,0.959,-7.7252,6.687,32.542,0,0,0
-0.3257,0.2581,0.9412,-5.6183,6.3435,31.542,0,0,0
-0.3198,0.2327,0.9597,-2.4046,5.6947,30.9771,0,0,0
-0.3237,0.2512,0.9509,0.9771,4.916,30.4504,0,0,0
-0.3301,0.2612,0.9536,4.1832,5.7557,29.3282,0,0,0
-0.322,0.2634,0.9551,5.5038,8.0992,28.3893,0,0,0
-0.3181,0.2869,0.9514,6.145,10.7099,27.0229,0,0,0
-0.3281,0.291,0.9417,4.3969,11.7252,24.542,0,0,0
-0.3357,0.2776,0.949,3.6794,12.3893,23.6718,0,0,0
-0.3662,0.2546,0.9302,2.2061,8.9313,25.1679,0,0,0
-0.3101,0.2891,0.9697,2.4962,13.4504,25.3282,0,0,0
-0.3179,0.2986,0.9224,1.145,12.3969,24.313,0,0,0
-0.3293,0.3308,0.9402,0.313,13.3053,20.8168,0,0,0
-0.3564,0.3347,0.9124,-1.458,11.5573,17.0305,0,0,0
-0.3591,0.3271,0.9104,-2.7405,9.6336,13.5725,0,0,0
-0.3701,0.3284,0.8862,-2.4733,5.7557,10.1756,0,0,0
-0.3804,0.333,0.8789,-1.313,0.9847,6.542,0,0,0
-0.3679,0.3086,0.8938,-1.1298,-2.687,5.2824,0,0,0
-0.3381,0.3093,0.9143,-0.7176,-3.0153,5.7023,0,0,0
-0.3237,0.3403,0.9058,-0.2519,-2.2061,5.1145,0,0,0
-0.3315,0.3323,0.916,-1.0229,-3.229,2.3435,0,0,0
-0.325,0.312,0.9343,-1.374,-2.6718,1.3893,0,0,0
-0.3147,0.3147,0.9167,-1.2061,-1.0534,1.5496,0,0,0
-0.3193,0.3203,0.916,-2.1374,0.2595,1.2672,0,0,0
-0.3335,0.3215,0.9067,-2.8092,-0.6641,0.0,0,0,0
-0.3472,0.3206,0.8975,-3.0458,-3.2366,-2.1756,0,0,0
-0.3455,0.301,0.9087,-2.0076,-5.7786,-3.4733,0,0,0
-0.3264,0.2842,0.9185,0.3435,-7.6641,-2.8168,0,0,0
-0.3154,0.2939,0.9258,3.2366,-7.2977,-1.4198,0,0,0
-0.3159,0.3083,0.9238,3.9542,-6.8779,-1.5115,0,0,0
-0.3223,0.3257,0.9292,2.313,-6.0153,-2.313,0,0,0
-0.3232,0.3325,0.926,-0.5725,-6.7557,-4.0382,0,0,0
-0.3284,0.3184,0.9204,-2.916,-8.3053,-5.5038,0,0,0
-0.3237,0.2991,0.9219,-4.0992,-9.0458,-5.542,0,0,0
-0.3169,0.3025,0.9319,-3.4733,-9.313,-5.1908,0,0,0
-0.3147,0.3066,0.917,-2.5496,-9.855,-6.8168,0,0,0
-0.321,0.2925,0.9187,-0.4733,-11.2672,-8.687,0,0,0
-0.3164,0.2805,0.9248,2.1527,-11.9771,-8.4504,0,0,0
-0.3064,0.272,0.9355,3.4733,-10.5191,-7.0763,0,0,0
-0.2888,0.2856,0.9429,3.4885,-7.9084,-4.6183,0,0,0
-0.2961,0.3083,0.9407,1.687,-5.9389,-4.8321,0,0,0
-0.3079,0.3235,0.9285,-0.9008,-5.6031,-7.0076,0,0,0
-0.3162,0.322,0.9128,-3.3053,-6.6107,-8.6107,0,0,0
-0.3208,0.3193,0.9082,-6.2366,-7.8015,-10.7786,0,0,0
-0.3137,0.2825,0.9177,-8.7023,-8.6183,-10.2443,0,0,0
-0.2988,0.2715,0.9131,-8.3435,-8.1374,-9.3053,0,0,0
-0.3022,0.2688,0.916,-7.0916,-7.5115,-9.4122,0,0,0
-0.312,0.2656,0.9165,-4.084,-8.4046,-11.1069,0,0,0
-0.3115,0.2661,0.9231,-2.0687,-9.6412,-13.0305,0,0,0
-0.3064,0.2756,0.9204,0.2595,-10.5267,-14.9542,0,0,0
-0.3127,0.2827,0.9062,1.084,-12.3817,-16.6336,0,0,0
-0.3184,0.2932,0.8877,-0.0458,-15.458,-18.6183,0,0,0
-0.3264,0.2979,0.8843,-3.7786,-19.8855,-21.1832,0,0,0
-0.3081,0.3191,0.8967,-11.7939,-27.6641,-32.1145,0,0,0
-0.2839,0.291,0.9026,-13.3893,-29.5649,-39.1298,0,0,0
-0.2581,0.2129,0.928,-16.0305,-30.3588,-38.9618,0,0,0
-0.2258,0.1589,0.9756,-18.8397,-25.1756,-29.9313,0,0,0
-0.2085,0.1829,0.9922,-20.5649,-15.3588,-22.5344,0,0,0
-0.2249,0.2043,0.9871,-20.3359,-8.3359,-22.0076,0,0,0
-0.2527,0.2004,0.9966,-18.2366,-4.4962,-26.5725,0,0,0
-0.3523,0.3408,1.2312,-27.4122,-0.4046,-31.0992,0,0,0
-0.2634,0.063,0.8459,-9.4962,-6.7634,-24.4504,0,0,0
-0.2898,0.1272,0.9727,-9.1298,-7.7405,-16.5802,0,0,0
-0.3076,0.1492,0.9622,-7.7176,-5.9466,-12.4351,0,0,0
-0.3057,0.1772,0.9409,-8.2595,-6.5954,-8.9389,0,0,0
-0.2959,0.2092,0.9561,-8.7786,-8.0534,-9.229,0,0,0
-0.3005,0.2,0.9553,-11.5115,-9.3511,-10.7252,0,0,0
-0.302,0.2061,0.9629,-14.0687,-10.8473,-10.8092,0,0,0
-0.2986,0.2,0.9575,-17.0916,-11.4962,-10.1145,0,0,0
-0.2969,0.1892,0.9626,-18.7863,-13.2214,-9.145,0,0,0
-0.2983,0.1909,0.9685,-16.5802,-14.9847,-9.3053,0,0,0
-0.302,0.1868,0.9675,-12.7557,-17.626,-9.9389,0,0,0
-0.2969,0.176,0.9771,-10.4733,-20.0,-9.374,0,0,0
-0.2756,0.1765,0.9897,-9.458,-20.2672,-7.3359,0,0,0
-0.2651,0.1787,0.9924,-9.8702,-17.916,-5.4733,0,0,0
-0.2788,0.1782,0.9924,-11.3588,-17.374,-3.4351,0,0,0
-0.283,0.1699,1.0098,-10.4122,-18.1527,-3.0153,0,0,0
-0.2859,0.1545,0.9978,-7.1756,-19.8855,-2.916,0,0,0
-0.2751,0.1499,1.0046,-2.3588,-21.3511,-2.8015,0,0,0
-0.2607,0.1492,1.022,2.8779,-21.0305,-1.5954,0,0,0
-0.2422,0.1646,1.0261,7.0916,-18.626,0.8779,0,0,0
-0.2466,0.2021,1.02,10.0305,-16.4656,1.9466,0,0,0
-0.2632,0.2393,1.0063,9.6565,-15.8626,0.0153,0,0,0
-0.2722,0.2549,0.999,7.1603,-16.5114,-1.7634,0,0,0
-0.2563,0.2334,1.001,3.8702,-16.4885,-5.374,0,0,0
-0.2244,0.198,1.0142,3.7557,-13.2977,-5.6031,0,0,0
-0.2095,0.1943,1.0281,4.8626,-5.9389,-6.1756,0,0,0
-0.2056,0.1838,1.0249,7.8931,1.1527,-5.0916,0,0,0
-0.2217,0.1948,1.0029,11.9695,6.2977,-4.3282,0,0,0
-0.2578,0.1594,0.9802,16.7863,8.0305,-4.1908,0,0,0
-0.2512,0.1038,1.0,25.4427,8.9695,0.084,0,0,0
-0.2571,0.136,0.9854,40.4046,11.5802,1.7939,0,0,0
-0.2532,0.1768,0.95,51.2137,11.2519,2.5115,0,0,0
-0.2524,0.2683,0.9604,53.6641,10.9847,0.6412,0,0,0
-0.2466,0.2988,0.9192,49.9084,9.9771,1.1603,0,0,0
-0.2471,0.3538,0.9109,38.1908,8.9695,1.0153,0,0,0
-0.2563,0.3757,0.9128,21.2061,7.4122,0.4962,0,0,0
-0.269,0.3735,0.9126,8.0382,6.3817,-1.0458,0,0,0
-0.2666,0.355,0.9189,-2.4122,3.8168,-2.4351,0,0,0
-0.2583,0.3386,0.9236,-9.7557,0.5573,-3.0534,0,0,0
-0.2605,0.3201,0.9216,-13.7863,-2.0534,-3.7252,0,0,0
-0.2603,0.3091,0.9207,-14.5496,-3.6489,-1.916,0,0,0
-0.2588,0.3044,0.9312,-14.8244,-4.9008,-0.1221,0,0,0
-0.2551,0.2954,0.9265,-14.542,-5.229,1.2137,0,0,0
-0.2571,0.2866,0.9414,-14.6031,-5.6718,2.4046,0,0,0
-0.2476,0.2832,0.938,-14.0458,-5.2824,3.8931,0,0,0
-0.2415,0.2832,0.9292,-13.1985,-5.5878,5.0229,0,0,0
-0.2449,0.2866,0.9224,-13.1908,-6.5573,6.084,0,0,0
-0.2458,0.2754,0.9158,-13.0458,-8.1221,7.2443,0,0,0
-0.2512,0.2639,0.9155,-12.7405,-10.5038,8.4198,0,0,0
-0.252,0.2524,0.9067,-12.2366,-12.4733,9.2672,0,0,0
-0.2375,0.2351,0.9136,-11.458,-14.0153,11.2214,0,0,0
-0.2263,0.2271,0.9153,-10.0458,-15.5115,12.7939,0,0,0
-0.2292,0.2224,0.9348,-8.7557,-17.7023,14.229,0,0,0
-0.218,0.2302,0.9343,-6.9618,-19.771,14.7099,0,0,0
-0.2183,0.2458,0.937,-5.7939,-21.9084,14.3893,0,0,0
-0.2222,0.2625,0.9539,-5.9313,-22.9466,14.3511,0,0,0
-0.2244,0.2732,0.9519,-7.3893,-23.3511,13.8321,0,0,0
-0.2107,0.2405,1.061,-4.8855,-21.542,14.0229,0,0,0
-0.1926,0.2058,1.0715,8.3359,-12.9771,15.6794,0,0,0
-0.2029,0.2839,1.0488,13.2901,-11.5649,10.1527,0,0,0
-0.1934,0.2886,1.0713,16.0458,-9.2443,7.5725,0,0,0
-0.2141,0.3125,1.0444,13.6947,-4.5038,6.5573,0,0,0
-0.2212,0.3191,1.0081,7.0916,-4.1298,5.6183,0,0,0
-0.2034,0.3049,0.999,2.2824,-5.374,5.2595,0,0,0
-0.2083,0.2993,0.9641,-1.4733,-8.6489,5.0916,0,0,0
-0.2222,0.2986,0.9624,-2.6031,-13.2366,3.5115,0,0,0
-0.2102,0.2908,0.9866,-1.5496,-13.1145,2.229,0,0,0
-0.1799,0.2876,0.9878,1.0763,-11.5649,1.0076,0,0,0
-0.1628,0.2993,0.9814,1.4198,-9.458,0.1527,0,0,0
-0.1707,0.2715,0.9829,0.5267,-8.1603,0.1527,0,0,0
-0.1667,0.2632,0.9944,0.1985,-7.7328,2.0687,0,0,0
-0.1597,0.2678,0.9988,2.0076,-6.8702,2.5191,0,0,0
-0.1599,0.2751,1.0078,2.9847,-5.5267,2.2672,0,0,0
-0.1562,0.2876,0.9966,2.3664,-4.0,1.0916,0,0,0
-0.166,0.2866,1.0122,1.1527,-2.2901,-0.3511,0,0,0
-0.177,0.2781,0.9971,0.0763,-1.6107,-0.771,0,0,0
-0.175,0.2751,1.0002,-1.9008,-1.4809,-0.5115,0,0,0
-0.1794,0.2732,0.9956,-2.6412,-2.0992,-0.6641,0,0,0
-0.1855,0.2664,0.998,-2.7023,-2.7786,-1.5267,0,0,0
-0.1833,0.2708,0.989,-2.2748,-2.5802,-2.0916,0,0,0
-0.178,0.2603,0.9824,-2.3282,-2.145,-2.2519,0,0,0
-0.1758,0.2451,0.9712,-2.3206,-1.8779,-1.9084,0,0,0
-0.1716,0.2375,0.978,-1.7557,-1.9084,-1.0611,0,0,0
-0.1687,0.2424,0.9834,-0.3969,-2.1374,-0.8168,0,0,0
-0.1724,0.2292,0.9788,1.3893,-1.771,-0.5573,0,0,0
-0.1655,0.2305,0.9771,2.6107,-1.1221,0.0076,0,0,0
-0.1704,0.2454,0.9746,3.9084,-0.3817,0.9008,0,0,0
-0.1743,0.2703,0.9736,4.2443,-0.2443,1.4885,0,0,0
-0.1768,0.2827,0.97,2.8092,-0.1221,1.0916,0,0,0
-0.1768,0.2876,0.9753,1.5954,0.145,0.687,0,0,0
-0.1785,0.2791,0.9736,0.6565,0.3588,0.1908,0,0,0
-0.1826,0.2695,0.9788,0.9618,0.7786,-0.2443,0,0,0
-0.1865,0.2693,0.9802,0.9618,0.2748,-0.3817,0,0,0
-0.1802,0.2881,0.9775,0.9237,-0.2214,0.1145,0,0,0
-0.1765,0.2864,0.9817,0.5115,-0.3511,0.2214,0,0,0
-0.1792,0.2881,0.9866,0.1908,-0.3817,-0.6412,0,0,0
-0.1826,0.2751,0.9878,-0.5725,-0.458,-1.0687,0,0,0
-0.1814,0.2781,0.9895,-0.6794,-0.1756,-1.1908,0,0,0
-0.1809,0.27,0.9797,-1.4351,0.229,-1.1069,0,0,0
-0.1799,0.2722,0.9714,-1.855,-0.2061,-0.6794,0,0,0
-0.1838,0.2734,0.9719,-1.9847,-0.0992,-0.7176,0,0,0
-0.1775,0.2693,0.9653,-1.8931,-0.1985,-0.3664,0,0,0
-0.1753,0.2756,0.9719,-1.5267,-0.1069,-0.4656,0,0,0
-0.1787,0.2732,0.9749,-1.0458,-0.4351,-0.3664,0,0,0
-0.1804,0.2771,0.9758,-0.7252,-0.6947,-0.4656,0,0,0
-0.1797,0.2766,0.9739,-0.7023,-1.0992,-0.5344,0,0,0
-0.1785,0.2749,0.9636,-1.1145,-1.0458,-0.6641,0,0,0
-0.175,0.2783,0.9722,-1.5954,-0.542,-0.7481,0,0,0
-0.1753,0.2747,0.9751,-1.5725,-0.145,-0.9771,0,0,0
-0.1885,0.2673,0.9729,-1.5649,-0.4962,-1.0153,0,0,0
-0.1819,0.2678,0.9795,-1.9237,-0.626,-1.084,0,0,0
-0.1746,0.2673,0.98,-2.0763,-0.1908,-0.7786,0,0,0
-0.165,0.2751,0.9768,-2.5038,0.0992,-0.4656,0,0,0
-0.168,0.2686,0.9795,-2.2595,0.7099,-0.2595,0,0,0
-0.1714,0.271,0.9758,-1.4351,0.6565,-0.3969,0,0,0
-0.176,0.2654,0.9661,-0.4885,0.4275,-0.9695,0,0,0
-0.1819,0.2732,0.9731,-0.0229,0.4656,-0.3588,0,0,0
-0.1809,0.28,0.9639,-0.3664,0.0458,-0.6107,0,0,0
-0.1792,0.2783,0.9634,-0.3893,-0.0763,-0.7328,0,0,0
-0.1748,0.2839,0.9692,-0.6718,-0.2214,-1.1679,0,0,0
-0.1758,0.2693,0.9658,-0.7023,0.2595,-1.0229,0,0,0
-0.1792,0.2744,0.9712,-0.7786,0.2214,-0.7557,0,0,0
-0.1824,0.2717,0.9744,-0.8015,0.1069,-0.7405,0,0,0
-0.1892,0.2781,0.9695,-0.4427,-0.458,-0.5191,0,0,0
-0.1816,0.2766,0.9771,-0.4885,-0.5344,-0.4885,0,0,0
-0.1743,0.2813,0.9805,-1.3969,-0.2443,-1.0916,0,0,0
-0.1702,0.2744,0.9756,-1.5649,0.4733,-1.0763,0,0,0
-0.1797,0.27,0.9656,-1.7863,0.9084,-1.6947,0,0,0
-0.187,0.2688,0.9607,-2.0305,0.7634,-1.8626,0,0,0
-0.1892,0.2686,0.959,-1.8855,0.084,-1.4962,0,0,0
-0.1831,0.2654,0.9609,-1.4427,-0.4198,-0.855,0,0,0
-0.1816,0.2646,0.9639,-0.5267,-0.3664,-0.3206,0,0,0
-0.176,0.2651,0.968,0.7481,-0.2977,-0.2366,0,0,0
-0.1731,0.2598,0.98,1.771,0.0458,-0.2977,0,0,0
-0.1792,0.2664,0.9685,3.0229,1.1603,-0.2137,0,0,0
-0.1799,0.2666,0.9622,3.4885,1.2443,0.1679,0,0,0
-0.1746,0.2732,0.9644,3.542,1.3282,0.542,0,0,0
-0.1716,0.2798,0.957,3.2137,1.3359,0.2748,0,0,0
-0.1667,0.2788,0.9641,3.2672,1.4733,0.2443,0,0,0
-0.1709,0.2844,0.9575,3.5954,1.4504,0.1908,0,0,0
-0.1675,0.2837,0.957,3.5954,2.3206,-0.5344,0,0,0
-0.1726,0.2839,0.9595,3.6336,3.7023,-0.8168,0,0,0
-0.1816,0.2852,0.9502,3.3206,4.6107,-1.916,0,0,0
-0.1794,0.2842,0.9473,3.1221,5.8244,-2.0687,0,0,0
-0.1792,0.2546,0.9429,4.6641,6.9771,-1.5649,0,0,0
-0.1895,0.251,0.9495,6.855,6.6412,-0.8321,0,0,0
-0.1782,0.2935,0.989,6.2214,8.6183,-1.1908,0,0,0
-0.1714,0.27,0.988,6.2748,10.1527,-1.4504,0,0,0
-0.1702,0.3186,1.0137,5.9008,12.9771,-1.8473,0,0,0
-0.1758,0.2781,0.9951,4.2977,14.2748,-2.542,0,0,0
-0.2014,0.2805,1.0142,9.5802,12.1985,-2.4885,0,0,0
-0.21,0.2639,0.9841,13.1756,9.2595,-2.3511,0,0,0
-0.2378,0.3474,0.9521,9.6183,7.3206,-1.6412,0,0,0
-0.3208,0.1277,1.0964,23.6794,1.1603,4.8092,0,0,0
-0.2078,0.373,0.9241,4.6489,2.0382,1.7939,0,0,0
-0.1768,0.3228,0.9849,10.5115,2.1145,-0.3817,0,0,0
-0.1863,0.4163,0.8789,6.6794,2.9084,-0.5649,0,0,0
-0.1897,0.385,0.9475,2.0763,3.916,-2.916,0,0,0
-0.2146,0.3433,0.947,-1.8168,3.3206,-5.374,0,0,0
-0.229,0.3687,0.9412,-2.4046,1.4885,-7.1832,0,0,0
-0.2275,0.3291,0.9387,-3.9771,0.916,-8.6947,0,0,0
-0.2263,0.3186,0.9534,-4.9466,0.626,-9.0305,0,0,0
-0.2207,0.2896,0.9324,-6.5191,-1.4198,-7.5954,0,0,0
-0.2144,0.2871,0.9863,-4.7023,-3.5496,-5.5191,0,0,0
-0.21,0.3223,0.988,-5.1908,-1.5954,-7.7405,0,0,0
-0.2102,0.3176,0.9473,-4.3893,-1.8855,-9.4351,0,0,0
-0.2195,0.3147,0.9475,-4.2748,-2.145,-9.4275,0,0,0
-0.2261,0.3013,0.9529,-5.0382,-1.7328,-9.2061,0,0,0
-0.2249,0.2869,0.9587,-5.3053,-2.916,-7.3664,0,0,0
-0.2214,0.2686,0.9636,-5.6794,-4.6183,-4.916,0,0,0
-0.21,0.2795,0.9626,-4.8244,-3.0153,-4.1069,0,0,0
-0.2017,0.291,0.9861,-4.8321,-1.9847,-3.3664,0,0,0
-0.1909,0.2993,0.9746,-4.626,-1.9008,-3.1221,0,0,0
-0.1917,0.3066,0.9746,-4.6336,-0.2366,-3.8779,0,0,0
-0.197,0.2969,0.9585,-4.8015,0.8015,-4.5191,0,0,0
-0.2095,0.283,0.9636,-4.4351,1.2061,-3.9389,0,0,0
-0.2112,0.2839,0.9639,-3.7939,0.8702,-3.4198,0,0,0
-0.2209,0.2754,0.9639,-2.2672,-0.2672,-3.6794,0,0,0
-0.2139,0.2808,0.9675,-1.2061,-0.8244,-3.5954,0,0,0
-0.2083,0.292,0.9619,-0.4885,-0.8168,-3.8092,0,0,0
-0.2073,0.3005,0.9617,0.0534,-1.0153,-4.4198,0,0,0
-0.1482,0.2793,0.9814,-0.9695,-2.0229,-9.1374,0,0,0
-0.2031,0.2773,0.9529,6.2519,-1.2366,-11.5802,0,0,0
-0.24,0.2856,0.98,3.6031,2.229,-13.2443,0,0,0
-0.2346,0.2664,0.9653,4.6565,1.5496,-6.6641,0,0,0
-0.2383,0.2893,0.9604,2.4198,-1.2824,0.3053,0,0,0
-0.2271,0.3347,0.957,0.3282,-1.4198,2.4504,0,0,0
-0.2065,0.3264,0.9561,-1.2519,-1.0992,0.8321,0,0,0
-0.1917,0.3264,0.9514,-1.771,-1.3969,-1.0763,0,0,0
-0.1936,0.3206,0.9675,-1.4275,-0.3435,-2.5344,0,0,0
-0.2083,0.301,0.958,-1.4733,0.1527,-3.0458,0,0,0
-0.2202,0.2886,0.9666,-1.8321,0.1603,-1.9237,0,0,0
-0.2168,0.2959,0.9568,-2.1527,0.0382,-1.0534,0,0,0
-0.2097,0.3005,0.957,-2.5802,0.1298,-1.2366,0,0,0
-0.2119,0.3022,0.9656,-2.4733,-0.1985,-1.4198,0,0,0
-0.2104,0.3032,0.9622,-3.0,0.3969,-1.5344,0,0,0
-0.2207,0.2947,0.9556,-3.0153,0.4809,-1.4809,0,0,0
-0.2275,0.2834,0.9534,-2.5954,-0.0153,-1.1832,0,0,0
-0.2195,0.2896,0.9519,-2.2748,-0.5496,-0.7099,0,0,0
-0.2153,0.3003,0.9648,-1.6794,-1.2519,-0.9313,0,0,0
-0.2085,0.3052,0.9556,-1.5115,-1.2061,-1.5191,0,0,0
-0.2051,0.3098,0.9551,-2.0534,-0.1832,-1.855,0,0,0
-0.2146,0.2961,0.9565,-2.7328,0.3053,-2.3053,0,0,0
-0.2205,0.293,0.9551,-2.5649,0.4656,-1.7634,0,0,0
-0.2268,0.292,0.9497,-2.7023,0.2366,-1.2595,0,0,0
-0.2227,0.2998,0.9631,-2.8779,-0.4733,-1.0534,0,0,0
-0.2075,0.313,0.96,-3.3359,-0.4122,-1.7252,0,0,0
-0.1953,0.3059,0.9687,-4.0992,0.6412,-1.6794,0,0,0
-0.2039,0.3098,0.9724,-4.6489,1.1527,-2.2061,0,0,0
-0.2129,0.2866,0.9546,-4.1298,1.1069,-2.229,0,0,0
-0.2178,0.2825,0.9551,-3.8779,1.1221,-1.4656,0,0,0
-0.2234,0.2781,0.9592,-3.084,0.8626,-1.0763,0,0,0
-0.2166,0.2898,0.9561,-2.2137,0.3359,-1.1145,0,0,0
-0.2144,0.2859,0.9644,-1.2901,-0.0763,-1.4198,0,0,0
-0.2175,0.2854,0.9626,-0.6565,-0.2061,-1.7023,0,0,0
-0.2187,0.293,0.9612,-0.6489,-0.0076,-1.7328,0,0,0
-0.2229,0.2878,0.9556,-0.8626,0.4733,-1.2443,0,0,0
-0.2234,0.293,0.9541,-1.9008,0.7939,-0.8931,0,0,0
-0.2307,0.2969,0.9563,-1.3282,0.4504,-0.2443,0,0,0
-0.2312,0.3018,0.9578,-1.4351,-0.6031,-0.2824,0,0,0
-0.2151,0.3057,0.9563,-2.0382,-0.5878,-0.2519,0,0,0
-0.2075,0.3064,0.9614,-2.2824,-0.2901,-0.3511,0,0,0
-0.2007,0.2937,0.9673,-2.5725,-0.1145,-1.0992,0,0,0
-0.2083,0.2937,0.9609,-2.2901,0.3053,-0.6031,0,0,0
-0.2202,0.2815,0.9661,-2.0153,0.374,-0.6947,0,0,0
-0.2263,0.2803,0.9585,-1.2366,0.2061,0.084,0,0,0
-0.2212,0.2893,0.9495,-0.8092,-0.5191,0.0382,0,0,0
-0.2212,0.3,0.9622,-0.916,-0.7099,0.2901,0,0,0
-0.2122,0.3103,0.9622,-0.6794,-0.4046,-0.6412,0,0,0
-0.2083,0.3096,0.9602,-1.6718,0.2595,-1.4504,0,0,0
-0.2124,0.3076,0.9634,-2.3282,0.374,-1.1221,0,0,0
-0.219,0.3018,0.9568,-3.2977,0.5496,-1.084,0,0,0
-0.2229,0.2854,0.96,-3.2824,0.4122,-0.6489,0,0,0
-0.2192,0.2703,0.9575,-2.1221,-0.1221,0.0687,0,0,0
-0.2234,0.2864,0.9561,-0.9466,-0.5573,-0.1832,0,0,0
-0.2187,0.2922,0.9595,-0.4733,-0.626,-0.1374,0,0,0
-0.2129,0.3101,0.9687,-1.0458,-0.1221,-0.5191,0,0,0
-0.2117,0.304,0.9534,-1.6183,-0.2061,-1.4122,0,0,0
-0.219,0.3059,0.9587,-2.6183,0.145,-1.2595,0,0,0
-0.2241,0.2942,0.9587,-2.6412,0.4198,-1.2595,0,0,0
-0.2258,0.281,0.9604,-2.1603,0.1298,-1.1221,0,0,0
-0.217,0.2781,0.9531,-1.542,-0.4733,-0.1832,0,0,0
-0.219,0.2974,0.9631,-0.8855,-0.2977,-0.2977,0,0,0
-0.2078,0.3069,0.9597,-1.1145,0.1908,-0.7557,0,0,0
-0.2168,0.3081,0.9573,-1.7328,0.0076,-1.9237,0,0,0
-0.2158,0.3049,0.9617,-2.458,0.2977,-1.8397,0,0,0
-0.219,0.2974,0.9658,-3.084,0.8168,-1.3893,0,0,0
-0.2217,0.2866,0.9644,-3.0534,0.6336,-1.4427,0,0,0
-0.2183,0.2776,0.9617,-2.1527,0.1374,-1.0382,0,0,0
-0.2236,0.28,0.9573,-1.5725,-0.1069,-0.6412,0,0,0
-0.219,0.292,0.9587,-1.0687,-0.1603,-0.6718,0,0,0
-0.2241,0.2896,0.9446,-1.1145,0.1603,-1.5954,0,0,0
-0.2253,0.2986,0.9624,-0.8779,-0.2443,-1.6336,0,0,0
-0.2258,0.2974,0.9578,-1.4046,-0.2595,-0.8626,0,0,0
-0.228,0.3008,0.959,-1.5038,-0.6794,-0.8015,0,0,0
-0.2197,0.2935,0.9597,-1.7252,-0.6947,-0.6336,0,0,0
-0.2148,0.291,0.9622,-1.5038,-0.3588,-0.6641,0,0,0
-0.2178,0.2942,0.9587,-1.6412,-0.3969,-0.5802,0,0,0
-0.2202,0.2974,0.958,-1.5878,-0.2748,-0.855,0,0,0
-0.2224,0.2983,0.9626,-1.7939,-0.5649,-0.8779,0,0,0
-0.2185,0.2927,0.9595,-1.5191,-0.4198,-1.542,0,0,0
-0.2185,0.2913,0.9578,-1.4885,-0.3588,-0.8397,0,0,0
-0.2209,0.2903,0.9661,-1.7252,0.0916,-0.6031,0,0,0
-0.2144,0.2888,0.9634,-1.3435,0.2977,-0.2366,0,0,0
-0.2156,0.2915,0.9585,-1.2214,0.5344,-0.1374,0,0,0
-0.2212,0.292,0.9546,-0.4885,0.5267,-0.3206,0,0,0
-0.2217,0.2947,0.9568,-0.4962,0.4427,-0.6641,0,0,0
-0.2161,0.2981,0.9602,-1.145,0.4046,-0.3817,0,0,0
-0.2239,0.3015,0.9529,-1.3664,0.5344,0.0229,0,0,0
-0.2239,0.2979,0.9614,-2.0076,0.5344,0.1221,0,0,0
-0.2212,0.2922,0.9541,-1.8931,0.3893,0.0229,0,0,0
-0.2202,0.2849,0.9517,-1.6107,0.3435,-0.0611,0,0,0
-0.2209,0.2776,0.96,-1.6489,0.4809,0.4122,0,0,0
-0.2212,0.2981,0.9617,-0.542,0.6794,0.6489,0,0,0
-0.229,0.2986,0.9597,-0.1679,0.3588,-1.3359,0,0,0
-0.2285,0.2991,0.9573,-0.3435,0.4427,-0.458,0,0,0
-0.2344,0.3083,0.9551,-1.5038,-0.1221,-0.0305,0,0,0
-0.2273,0.2974,0.9561,-2.0153,0.4733,0.1679,0,0,0
-0.2195,0.3003,0.9495,-2.0687,-0.0611,0.3435,0,0,0
-0.2239,0.2937,0.9546,-1.9008,0.0229,-0.3359,0,0,0
-0.2268,0.2893,0.9534,-1.7634,-0.0534,-0.1527,0,0,0
-0.228,0.2937,0.9587,-1.5267,-0.1221,-0.2214,0,0,0
-0.2292,0.2959,0.9573,-1.5954,-0.771,-0.1985,0,0,0
-0.2212,0.3022,0.9583,-1.8168,-0.9618,-0.542,0,0,0
-0.2166,0.302,0.9597,-1.9542,-0.2672,-0.6412,0,0,0
-0.22,0.3037,0.9556,-2.0305,-0.3206,-0.6489,0,0,0
-0.2266,0.2915,0.9565,-1.916,-0.2061,-0.4351,0,0,0
-0.2275,0.2935,0.9561,-1.5267,-0.4122,-0.4885,0,0,0
-0.2241,0.2915,0.9614,-1.7481,-0.8015,-0.1679,0,0,0
-0.219,0.302,0.9612,-1.9847,-0.9771,-0.1832,0,0,0
-0.2148,0.3042,0.9639,-2.3588,-0.0611,-0.3206,0,0,0
-0.2146,0.302,0.9612,-2.5725,0.3053,-0.7634,0,0,0
-0.2261,0.2852,0.9602,-2.7939,0.313,-0.9313,0,0,0
-0.2314,0.2773,0.948,-1.9924,0.084,-0.2595,0,0,0
-0.2346,0.2839,0.9473,-1.3206,-0.5573,-0.2137,0,0,0
-0.2278,0.2859,0.9512,-0.2443,-1.542,0.0534,0,0,0
-0.2231,0.3022,0.9509,-0.7252,-1.5649,-0.084,0,0,0
-0.2185,0.3142,0.96,-1.1221,-0.9847,-0.0763,0,0,0
-0.2161,0.3088,0.9622,-1.8244,-0.6565,-0.855,0,0,0
-0.2144,0.2981,0.9678,-2.1069,-0.2366,-1.0916,0,0,0
-0.2202,0.292,0.9602,-1.9313,-0.0687,-0.7328,0,0,0
-0.2207,0.2861,0.9573,-1.5191,-0.3511,-0.5115,0,0,0
-0.2244,0.2915,0.9543,-0.8779,-0.3511,-0.0305,0,0,0
-0.2212,0.2988,0.9558,-1.1374,-0.7023,-0.2214,0,0,0
-0.2205,0.3076,0.958,-1.6412,-0.5954,-0.7863,0,0,0
-0.2209,0.3025,0.9546,-2.1832,-0.3664,-1.0382,0,0,0
-0.2227,0.3027,0.9541,-2.7481,-0.3359,-1.5191,0,0,0
-0.2246,0.2903,0.9578,-2.7328,-0.2443,-1.3893,0,0,0
-0.2268,0.2788,0.9583,-2.0763,-0.1298,-0.9847,0,0,0
-0.2295,0.2759,0.9624,-1.1298,-0.9084,-0.1527,0,0,0
-0.2234,0.2756,0.9678,-0.458,-0.9084,0.4733,0,0,0
-0.2212,0.2979,0.9597,-0.2672,-0.6794,0.3359,0,0,0
-0.2175,0.3069,0.9575,-0.8321,-0.6489,0.0763,0,0,0
-0.2195,0.3145,0.9514,-1.2061,-0.6489,-0.5573,0,0,0
-0.22,0.3145,0.9563,-2.0611,-0.4962,-1.0916,0,0,0
-0.2219,0.2957,0.9556,-2.7939,-0.2595,-1.1985,0,0,0
-0.2219,0.2922,0.9529,-2.4275,-0.6107,-1.1756,0,0,0
-0.22,0.28,0.957,-1.7405,-0.2366,-0.458,0,0,0
-0.2246,0.2869,0.9565,-1.1679,-0.0992,-0.1603,0,0,0
-0.2266,0.2927,0.9568,-0.771,-0.3435,-0.1069,0,0,0
-0.2217,0.2969,0.9531,-0.7328,-0.458,-0.3359,0,0,0
-0.219,0.3022,0.9675,-0.5573,0.1527,-1.374,0,0,0
-0.2131,0.2981,0.9539,-0.2748,-0.7939,-2.0305,0,0,0
-0.2219,0.3035,0.9653,-0.7786,-0.3206,-1.5038,0,0,0
-0.2212,0.2957,0.957,-1.7557,0.0992,-0.1756,0,0,0
-0.2224,0.2949,0.9551,-1.9695,0.0534,-0.2366,0,0,0
-0.2229,0.2908,0.9517,-1.2672,-0.2214,-0.4656,0,0,0
-0.2209,0.2957,0.9524,-0.8855,-0.687,-0.4122,0,0,0
-0.2219,0.3015,0.9597,-0.9084,-0.7634,-0.6183,0,0,0
-0.2209,0.3081,0.9607,-1.374,-0.3511,-1.0611,0,0,0
-0.2136,0.3098,0.9587,-1.7328,-0.0534,-1.687,0,0,0
-0.2141,0.3022,0.9629,-2.0076,0.1679,-1.7939,0,0,0
-0.2236,0.304,0.9602,-2.5573,0.7328,-1.3893,0,0,0
-0.2271,0.2922,0.9558,-2.4046,0.5191,-1.4962,0,0,0
-0.2253,0.2842,0.9512,-2.1298,0.3206,-0.9847,0,0,0
-0.2266,0.2908,0.9592,-1.6107,-0.3206,-0.771,0,0,0
-0.228,0.2974,0.9514,-1.4275,-0.4351,-0.9084,0,0,0
-0.2234,0.2974,0.9587,-1.2137,-0.1069,-1.0076,0,0,0
-0.2234,0.2996,0.9526,-1.1221,-0.1298,-1.5649,0,0,0
-0.2185,0.2969,0.9619,-1.7481,0.0916,-1.5191,0,0,0
-0.2219,0.2996,0.9626,-1.7481,0.7328,-0.9237,0,0,0
-0.2324,0.2971,0.948,-1.9542,0.1908,-1.0763,0,0,0
-0.2288,0.2908,0.9514,-1.8092,0.0458,-0.9389,0,0,0
-0.2322,0.2856,0.9541,-1.2061,-0.5267,-1.1145,0,0,0
-0.2224,0.29,0.9526,-1.1603,-0.2748,-1.2443,0,0,0
-0.2219,0.2996,0.9595,-0.5954,-0.3435,-1.3511,0,0,0
-0.2163,0.2986,0.9592,-0.9389,0.1221,-1.6412,0,0,0
-0.2256,0.3037,0.9587,-1.5344,0.1679,-1.5191,0,0,0
-0.2227,0.3062,0.9546,-2.3053,0.2824,-1.3588,0,0,0
-0.2266,0.2939,0.9575,-2.5878,0.5649,-0.7481,0,0,0
-0.2283,0.2881,0.9585,-2.2214,0.0458,-1.1527,0,0,0
-0.2231,0.2861,0.9624,-2.0382,0.1527,-0.8855,0,0,0
-0.2324,0.2996,0.9592,-1.5725,-1.0382,-0.4351,0,0,0
-0.2249,0.3079,0.9575,-2.0763,-0.8015,-0.6183,0,0,0
-0.2217,0.3027,0.9573,-2.2672,-0.2977,-1.0076,0,0,0
-0.2263,0.2952,0.957,-2.7328,0.0076,-1.4656,0,0,0
-0.2275,0.2854,0.9578,-2.5496,-0.0458,-1.0229,0,0,0
-0.2302,0.2854,0.9509,-1.9389,-0.2519,-0.5802,0,0,0
-0.2314,0.2847,0.9573,-0.9008,-0.9237,0.0382,0,0,0
-0.2322,0.2847,0.9497,-0.4198,-1.1985,0.4809,0,0,0
-0.2239,0.3042,0.9595,-0.2672,-1.1832,0.3664,0,0,0
-0.2202,0.3093,0.9612,-1.1069,-0.8092,-0.229,0,0,0
-0.2141,0.3135,0.9517,-2.1069,-0.7863,-0.5191,0,0,0
-0.2261,0.3115,0.9526,-2.4275,-0.0153,-0.9847,0,0,0
-0.2361,0.293,0.9526,-2.145,-0.0763,-1.0,0,0,0
-0.2356,0.2891,0.9512,-1.8015,-0.6489,-0.5573,0,0,0
-0.2351,0.2822,0.9565,-1.4733,-0.9618,-0.1908,0,0,0
-0.2234,0.2966,0.9607,-1.2824,-1.3435,0.1069,0,0,0
-0.2261,0.301,0.9624,-1.3817,-1.1832,-0.3664,0,0,0
-0.2256,0.302,0.9695,-1.9847,-0.5344,0.0305,0,0,0
-0.2373,0.2864,0.9456,-2.3359,-0.3664,-0.0153,0,0,0
-0.2566,0.2837,0.9539,-1.6641,-0.7405,1.2977,0,0,0
-0.2686,0.2842,0.9514,-0.5267,-1.5802,2.145,0,0,0
-0.2659,0.2617,0.9641,0.9618,-2.9618,3.7252,0,0,0
-0.2393,0.2822,0.9805,1.084,-3.4885,6.8397,0,0,0
-0.2139,0.2661,0.9702,2.0382,-3.7023,7.8168,0,0,0
-0.1951,0.2761,0.9631,4.1756,-2.2443,8.1527,0,0,0
-0.2019,0.2886,0.9631,6.4046,-2.3893,7.3969,0,0,0
-0.2261,0.335,0.9521,5.0153,-1.1908,7.4504,0,0,0
-0.2224,0.3491,0.9539,2.1069,-0.0687,7.4198,0,0,0
-0.2202,0.3398,0.9849,-0.4962,1.374,6.916,0,0,0
-0.2217,0.3171,0.9746,-1.9847,2.9618,6.5878,0,0,0
-0.2373,0.2871,0.9536,-1.6641,0.6336,9.9695,0,0,0
-0.2424,0.2886,0.9363,-0.7863,-0.8931,9.916,0,0,0
-0.2336,0.2827,0.9417,0.5115,-2.1069,9.4504,0,0,0
-0.2346,0.2734,0.9785,2.4656,-1.5038,11.374,0,0,0
-0.2249,0.3203,1.0198,2.6336,0.7481,12.0916,0,0,0
-0.2253,0.3225,1.0164,1.9313,2.771,12.6183,0,0,0
-0.2109,0.3115,1.0039,6.8168,3.4275,15.2672,0,0,0
-0.2109,0.3044,0.9944,6.0763,6.1069,15.8626,0,0,0
-0.1904,0.2512,1.0046,4.1832,5.8321,19.0611,0,0,0
-0.156,0.2778,1.1042,4.2748,6.6336,20.1908,0,0,0
-0.1785,0.3462,1.1033,1.8092,13.313,17.1527,0,0,0
-0.156,0.3569,1.0735,1.4046,20.1374,11.8168,0,0,0
-0.176,0.3557,1.0339,4.4504,25.1756,7.7252,0,0,0
-0.2058,0.3918,1.03,4.1145,26.9924,4.6489,0,0,0
-0.2239,0.3828,1.0183,10.4046,30.6947,0.2443,0,0,0
-0.2437,0.4072,1.0183,11.1069,30.8855,-1.0153,0,0,0
-0.2117,0.2729,1.1411,2.7557,41.1908,0.5802,0,0,0
-0.1838,0.426,1.1821,4.2595,55.458,-1.3817,0,0,0
-0.1663,0.3831,1.1165,6.1527,66.6031,-12.2366,0,0,0
-0.1938,0.363,1.0735,8.9542,70.3206,-12.3588,0,0,0
-0.2642,0.3474,1.0444,10.1908,74.8626,-13.2977,0,0,0
-0.3167,0.3218,0.9944,12.6489,76.6489,-11.9771,0,0,0
-0.3391,0.3481,0.9639,12.9389,76.5573,-12.6183,0,0,0
-0.4055,0.3462,0.8406,10.9924,75.084,-15.0,0,0,0
-0.3694,0.3838,0.9131,6.1298,68.1527,-14.9466,0,0,0
-0.4041,0.3328,0.824,3.374,65.9618,-15.8931,0,0,0
-0.3577,0.3398,0.9019,0.3588,60.6947,-12.0305,0,0,0
-0.3484,0.3262,0.8899,0.9084,62.0153,-9.084,0,0,0
-0.4009,0.3188,0.8699,0.8092,58.7481,-7.8931,0,0,0
-0.3982,0.3442,0.8882,4.771,58.5802,-10.3969,0,0,0
-0.3765,0.3552,0.8462,4.5573,55.8244,-12.1145,0,0,0
-0.3962,0.3237,0.834,3.0992,52.542,-11.6412,0,0,0
-0.3884,0.2698,0.7583,2.2061,50.7863,-8.5496,0,0,0
-0.3833,0.3271,0.845,2.2061,52.3359,-8.4275,0,0,0
-0.4009,0.3154,0.7766,4.916,50.9008,-7.4122,0,0,0
-0.4346,0.3252,0.7722,6.1908,47.2061,-7.6794,0,0,0
-0.4521,0.334,0.7483,5.6489,43.3053,-8.6031,0,0,0
-0.4612,0.3411,0.7278,3.6489,38.6489,-9.1985,0,0,0
-0.4619,0.3291,0.7209,0.855,33.2901,-8.7786,0,0,0
-0.4763,0.3147,0.7107,-0.4504,28.2366,-7.2366,0,0,0
-0.4773,0.3113,0.7065,-0.3359,24.2824,-5.1756,0,0,0
-0.479,0.3057,0.7148,1.145,19.9618,-3.4656,0,0,0
-0.4836,0.3079,0.7034,3.4275,15.7557,-1.9847,0,0,0
-0.4961,0.3184,0.7107,4.6412,11.0763,-1.0534,0,0,0
-0.4897,0.3208,0.7139,4.6565,7.4351,-0.3969,0,0,0
-0.4734,0.3257,0.7244,4.5954,5.8168,0.6565,0,0,0
-0.4595,0.3342,0.7451,4.3588,5.2061,2.5954,0,0,0
-0.4639,0.342,0.7561,5.1603,4.6947,2.8092,0,0,0
-0.4624,0.3491,0.7563,5.6183,4.5267,1.3435,0,0,0
-0.4756,0.3557,0.7568,6.4885,3.6794,0.3511,0,0,0
-0.4844,0.3652,0.7507,5.7099,1.9542,-0.5802,0,0,0
-0.4922,0.3701,0.751,3.8779,-0.5573,-1.145,0,0,0
-0.49,0.3726,0.7539,1.4122,-3.1069,-2.0992,0,0,0
-0.4814,0.3521,0.771,-1.7252,-5.4885,-1.9466,0,0,0
-0.4631,0.3418,0.7876,-3.8779,-6.0992,-1.7557,0,0,0
-0.4546,0.3157,0.8066,-2.9466,-5.6794,-0.9924,0,0,0
-0.4592,0.3191,0.8254,0.2214,-5.2595,-0.7634,0,0,0
-0.4648,0.3403,0.825,2.7023,-4.3359,-1.4809,0,0,0
-0.4739,0.3594,0.8159,2.1221,-3.4351,-2.2748,0,0,0
-0.4802,0.3611,0.8064,-0.7939,-4.0458,-2.5725,0,0,0
-0.4929,0.3496,0.8137,-3.7939,-5.0687,-1.9237,0,0,0
-0.4888,0.3406,0.8118,-4.8092,-5.8015,-1.7099,0,0,0
-0.4883,0.3367,0.8105,-3.0687,-6.2137,-1.229,0,0,0
-0.4902,0.3328,0.8384,-0.2061,-6.2748,-1.145,0,0,0
-0.4888,0.3525,0.832,1.8168,-6.0687,-1.6794,0,0,0
-0.4866,0.354,0.8442,1.9771,-6.1145,-2.3588,0,0,0
-0.4814,0.366,0.845,-0.5496,-5.7176,-1.5725,0,0,0
-0.4873,0.354,0.8508,-3.3206,-4.8702,-1.0305,0,0,0
-0.4905,0.3376,0.8586,-3.771,-4.5115,-0.5115,0,0,0
-0.4839,0.3303,0.8606,-1.5038,-3.5878,-0.4046,0,0,0
-0.4807,0.3398,0.863,2.1679,-2.2672,-0.4504,0,0,0
-0.4834,0.355,0.8596,4.4198,-1.0534,-1.0611,0,0,0
-0.4907,0.3794,0.8467,3.4351,-0.6565,-1.6794,0,0,0
-0.5076,0.3772,0.8352,-0.7176,-1.313,-3.1603,0,0,0
-0.5044,0.3569,0.835,-5.0534,-2.0763,-2.3511,0,0,0
-0.4924,0.3372,0.8501,-6.0611,-1.9008,-1.687,0,0,0
-0.4739,0.3245,0.8513,-4.084,-0.5115,-0.4504,0,0,0
-0.4753,0.324,0.8577,-0.2748,0.7328,0.0229,0,0,0
-0.4856,0.3408,0.8376,2.7557,1.3053,-0.5267,0,0,0
-0.4993,0.3513,0.8237,3.2214,1.313,-0.2672,0,0,0
-0.5015,0.3601,0.8235,1.4809,0.3588,0.1908,0,0,0
-0.4998,0.3506,0.8259,-0.8092,-0.6794,0.8397,0,0,0
-0.4814,0.3459,0.8433,-0.7939,-0.4122,1.5344,0,0,0
-0.4683,0.3474,0.8499,1.0305,0.5038,0.9542,0,0,0
-0.4663,0.3574,0.8357,2.0305,1.8092,0.084,0,0,0
-0.4854,0.3638,0.8225,0.9542,2.2061,-0.8779,0,0,0
-0.4976,0.3633,0.8228,-1.4351,1.7176,-1.2214,0,0,0
-0.4917,0.3542,0.8044,-3.3817,1.0076,-0.3817,0,0,0
-0.4893,0.3516,0.8066,-3.7176,0.1679,0.0076,0,0,0
-0.4849,0.3472,0.8167,-2.9466,-0.8244,-0.0763,0,0,0
-0.4766,0.3452,0.8091,-1.4427,-0.9008,-0.4046,0,0,0
-0.4729,0.3386,0.8208,0.4046,-0.4656,0.0382,0,0,0
-0.4778,0.3474,0.8184,1.8321,-0.1374,0.0534,0,0,0
-0.4863,0.3523,0.8086,1.4275,-0.2595,-0.0382,0,0,0
-0.4797,0.3564,0.814,-0.4351,-0.7252,0.084,0,0,0
-0.4739,0.3604,0.8147,-2.4046,-1.1145,0.4198,0,0,0
-0.4778,0.3645,0.8164,-2.7328,-1.5496,0.1145,0,0,0
-0.481,0.3486,0.8123,-2.1069,-1.4885,-0.3206,0,0,0
-0.4834,0.345,0.8154,-0.6107,-1.5802,-0.3511,0,0,0
-0.4924,0.3494,0.8074,0.3588,-2.2443,0.2443,0,0,0
-0.4976,0.3494,0.8157,-0.2672,-3.0687,0.5802,0,0,0
-0.4824,0.3608,0.8262,-1.7252,-4.1756,1.1756,0,0,0
-0.4712,0.3616,0.8296,-2.0763,-3.5344,1.0763,0,0,0
-0.4678,0.3613,0.8411,-1.6107,-2.7557,1.3511,0,0,0
-0.47,0.3579,0.8389,0.3969,-1.9237,1.3206,0,0,0
-0.4841,0.3677,0.8245,2.229,-1.771,0.6412,0,0,0
-0.4824,0.3718,0.823,1.7099,-2.1756,-0.0153,0,0,0
-0.4814,0.3701,0.8191,-0.0534,-2.9313,-0.145,0,0,0
-0.4766,0.3767,0.8215,-0.9237,-3.4504,0.1069,0,0,0
-0.4775,0.3674,0.8264,-1.4351,-3.4504,0.6107,0,0,0
-0.478,0.3547,0.8235,-0.4275,-3.7939,0.626,0,0,0
-0.4753,0.3569,0.8291,1.8092,-3.7328,0.5954,0,0,0
-0.4766,0.3655,0.8257,3.771,-3.7176,-0.3664,0,0,0
-0.4795,0.3735,0.8169,3.5573,-4.084,-1.229,0,0,0
-0.4807,0.3765,0.8098,1.7557,-5.3206,-2.0382,0,0,0
-0.479,0.3704,0.8083,-0.4504,-6.8702,-1.8855,0,0,0
-0.4773,0.3672,0.8076,-1.4198,-7.5802,-1.2672,0,0,0
-0.4783,0.3613,0.8042,-0.6183,-8.4809,-1.4046,0,0,0
-0.491,0.353,0.8103,0.7176,-10.3435,-1.916,0,0,0
-0.4902,0.3511,0.8064,2.916,-12.0992,-2.458,0,0,0
-0.4849,0.3516,0.8044,4.3664,-14.0305,-2.3053,0,0,0
-0.4629,0.3687,0.8252,5.4733,-14.4351,-1.7939,0,0,0
-0.457,0.377,0.8369,5.4885,-13.5573,-1.1832,0,0,0
-0.4624,0.3865,0.833,3.7252,-13.1985,-1.4351,0,0,0
-0.4666,0.3811,0.8328,1.9771,-12.9389,-0.7023,0,0,0
-0.4692,0.3799,0.8389,1.1069,-13.2137,-2.1832,0,0,0
-0.4646,0.3711,0.8386,1.3664,-14.458,-2.5038,0,0,0
-0.4697,0.377,0.8301,1.8168,-16.5191,-2.7863,0,0,0
-0.4702,0.3877,0.825,2.7328,-19.145,-3.3817,0,0,0
-0.4778,0.3782,0.8162,2.9008,-23.0687,-4.3206,0,0,0
-0.4685,0.3738,0.833,3.2748,-26.3206,-3.9466,0,0,0
-0.4529,0.3672,0.8313,3.0992,-27.3893,-3.0458,0,0,0
-0.4438,0.3787,0.8247,4.0992,-28.916,-3.8092,0,0,0
-0.4478,0.3679,0.8206,6.1298,-31.5573,-5.5725,0,0,0
-0.4543,0.3745,0.8079,6.9924,-35.9771,-4.8855,0,0,0
-0.4128,0.3972,0.8318,8.3206,-40.9847,-3.3664,0,0,0
-0.4333,0.366,0.7976,10.0,-45.3282,-3.687,0,0,0
-0.4302,0.344,0.8423,9.9847,-48.3664,-1.1908,0,0,0
-0.3953,0.354,0.8645,9.1374,-46.0076,2.458,0,0,0
-0.3518,0.376,0.8877,6.542,-39.7328,5.4656,0,0,0
-0.3274,0.4172,0.9104,2.7863,-33.9771,5.2519,0,0,0
-0.314,0.4185,0.9214,-0.1756,-28.9008,3.2137,0,0,0
-0.3552,0.4158,0.907,-2.3435,-26.5267,0.5725,0,0,0
-0.363,0.3743,0.9006,-1.4504,-24.916,-0.9466,0,0,0
-0.3733,0.3711,0.8862,0.6947,-24.8397,-0.9618,0,0,0
-0.3792,0.3623,0.8828,3.6183,-26.9008,-0.626,0,0,0
-0.3906,0.3838,0.8713,5.7634,-30.0076,-0.6565,0,0,0
-0.4019,0.3862,0.8665,5.9618,-33.1145,-0.8931,0,0,0
-0.3909,0.3926,0.8677,4.8015,-37.1603,-0.8855,0,0,0
-0.3691,0.3992,0.8804,3.6947,-40.7863,-0.687,0,0,0
-0.3418,0.4053,0.8872,3.4122,-43.1832,-0.9313,0,0,0
-0.3274,0.4009,0.8943,2.4962,-43.9466,-1.5573,0,0,0
-0.3171,0.4163,0.8926,1.9924,-43.8321,-3.4427,0,0,0
-0.3193,0.417,0.8787,1.0534,-45.1679,-5.4351,0,0,0
-0.3262,0.4031,0.8875,1.1756,-46.9466,-6.5191,0,0,0
-0.3225,0.4109,0.8799,1.2366,-48.6565,-6.8702,0,0,0
-0.2952,0.3967,0.8943,0.5115,-49.7939,-8.1221,0,0,0
-0.2969,0.4146,0.8984,1.1145,-50.1374,-9.1603,0,0,0
-0.2849,0.417,0.8936,0.374,-50.2214,-10.7634,0,0,0
-0.3169,0.4199,0.9053,0.687,-48.771,-13.0611,0,0,0
-0.2522,0.3767,0.907,6.2443,-49.3969,-13.4275,0,0,0
-0.2366,0.396,0.9141,10.1069,-48.5649,-12.4351,0,0,0
-0.2314,0.4109,0.9058,11.6031,-47.1756,-12.687,0,0,0
-0.231,0.4216,0.8989,12.5649,-45.5954,-11.8397,0,0,0
-0.2317,0.427,0.8865,11.2672,-44.2824,-12.7252,0,0,0
-0.2375,0.4358,0.8862,7.7557,-43.6489,-14.2137,0,0,0
-0.2322,0.4404,0.8933,4.5802,-42.8626,-15.3817,0,0,0
-0.2173,0.438,0.9001,1.8779,-42.5878,-17.7252,0,0,0
-0.2102,0.4233,0.8992,-0.3435,-41.9237,-17.5802,0,0,0
-0.1912,0.4336,0.9229,-1.8168,-39.9695,-17.2748,0,0,0
-0.1758,0.437,0.9363,-4.1527,-35.3359,-18.1908,0,0,0
-0.1655,0.429,0.938,-6.4351,-31.0534,-18.5649,0,0,0
-0.1709,0.4265,0.9409,-8.6183,-27.8473,-18.9389,0,0,0
-0.1797,0.4146,0.9404,-10.0458,-25.5878,-19.2519,0,0,0
-0.1807,0.4133,0.9338,-11.4656,-24.626,-20.084,0,0,0
-0.1814,0.3911,0.9456,-11.7786,-24.4198,-20.2824,0,0,0
-0.1716,0.3774,0.9561,-10.2366,-24.3511,-20.0534,0,0,0
-0.1648,0.3628,0.9568,-7.3359,-23.4809,-17.916,0,0,0
-0.1694,0.3899,0.969,-4.9313,-22.0687,-16.7099,0,0,0
-0.1685,0.405,0.9663,-5.542,-19.6183,-17.4962,0,0,0
-0.1631,0.4019,0.9648,-6.8702,-18.9237,-18.1374,0,0,0
-0.1526,0.408,0.9651,-9.1908,-16.6794,-17.5267,0,0,0
-0.1562,0.4043,0.9739,-12.0076,-13.3511,-16.1908,0,0,0
-0.1487,0.4089,0.9702,-15.0458,-11.0687,-15.9924,0,0,0
-0.1689,0.4099,0.9534,-18.4351,-9.229,-16.3969,0,0,0
-0.189,0.396,0.9431,-20.3511,-8.9389,-17.458,0,0,0
-0.1924,0.3848,0.9304,-22.2824,-9.5878,-17.6947,0,0,0
-0.1882,0.3706,0.9309,-23.5878,-11.1603,-17.2061,0,0,0
-0.1807,0.3547,0.9277,-24.6107,-13.2748,-14.7863,0,0,0
-0.1665,0.3679,0.9546,-24.4122,-14.916,-13.8626,0,0,0
-0.166,0.3555,0.9531,-23.5496,-14.7405,-15.0458,0,0,0
-0.1758,0.3479,0.9558,-21.2901,-15.1832,-15.2901,0,0,0
-0.1865,0.3406,0.9451,-21.0763,-15.4885,-15.1985,0,0,0
-0.1802,0.3391,0.9434,-21.5191,-16.8626,-14.5649,0,0,0
-0.1829,0.3232,0.9409,-22.4656,-18.084,-13.2366,0,0,0
-0.178,0.3145,0.9485,-23.2672,-19.7786,-11.6641,0,0,0
-0.1833,0.3018,0.957,-24.0611,-21.0687,-9.6718,0,0,0
-0.1699,0.3132,0.9585,-24.1985,-22.855,-9.8168,0,0,0
-0.1689,0.3018,0.9551,-24.9695,-24.9313,-10.3969,0,0,0
-0.156,0.2778,0.97,-24.7405,-26.1145,-9.1908,0,0,0
-0.1482,0.2732,0.9656,-24.2901,-27.2214,-7.4046,0,0,0
-0.1418,0.2583,0.9812,-23.7023,-27.5573,-6.9237,0,0,0
-0.1243,0.2471,0.9836,-21.2901,-28.4351,-5.6412,0,0,0
-0.126,0.2371,0.9785,-19.3359,-29.8626,-4.687,0,0,0
-0.1252,0.2537,0.9778,-17.4733,-30.7939,-4.6641,0,0,0
-0.1104,0.2341,0.9861,-15.8702,-31.3511,-4.084,0,0,0
-0.1064,0.2236,0.9954,-14.3969,-31.1832,-1.7176,0,0,0
-0.1064,0.2187,0.9919,-13.0687,-31.0382,0.3282,0,0,0
-0.1123,0.2417,0.9792,-13.6031,-31.5038,0.855,0,0,0
-0.1013,0.2371,0.9797,-13.916,-33.4733,0.3817,0,0,0
-0.0947,0.22,0.9917,-12.0763,-35.6565,1.2519,0,0,0
-0.0757,0.2222,0.9973,-8.9084,-36.9847,2.0458,0,0,0
-0.0715,0.2356,1.0017,-4.4351,-35.8855,1.7939,0,0,0
-0.0454,0.2253,1.0156,-0.7863,-32.6183,1.5954,0,0,0
-0.0327,0.2197,1.02,3.5954,-27.8473,1.229,0,0,0
-0.0286,0.2229,1.0217,7.2137,-22.7634,1.1374,0,0,0
-0.0315,0.2227,1.0256,9.5496,-18.2366,1.2443,0,0,0
-0.0327,0.2236,1.0234,10.7405,-13.1679,4.313,0,0,0
-0.0117,0.2883,1.0518,9.2366,-4.1069,4.9618,0,0,0
0.01,0.312,1.0459,3.7099,5.2824,2.084,0,0,0
0.0015,0.3088,1.0459,-0.9008,11.8779,-0.9237,0,0,0
-0.0317,0.2637,1.0403,-4.5115,16.2977,-3.0611,0,0,0
-0.0452,0.2024,1.022,-4.0229,18.6641,-1.7634,0,0,0
-0.0327,0.1775,1.0515,-1.4733,22.4351,3.0153,0,0,0
-0.0127,0.189,1.0676,0.5038,29.9466,7.855,0,0,0
0.0027,0.2019,1.0967,-0.916,39.8931,10.6107,0,0,0
0.0027,0.2375,1.1135,-3.6565,51.2595,11.6489,0,0,0
-0.0149,0.2583,1.085,-7.3817,61.0458,9.9313,0,0,0
-0.0376,0.2275,1.0713,-10.8321,67.2748,7.9542,0,0,0
-0.0667,0.1707,1.0581,-10.3893,69.3511,11.6183,0,0,0
-0.0725,0.1001,1.0723,-6.5496,74.2748,21.8855,0,0,0
-0.0737,0.1023,1.1033,-2.9847,85.0611,36.0916,0,0,0
-0.0588,0.1118,1.0935,-1.1756,95.4962,52.7634,0,0,0
-0.0537,0.22,1.0513,-0.7557,102.2443,62.3664,0,0,0
-0.1101,0.322,0.9819,-4.8779,100.9618,58.2901,0,0,0
-0.1799,0.3174,0.9446,-12.0763,94.1985,49.5878,0,0,0
-0.1833,0.2874,1.0149,-15.5725,93.7939,47.1298,0,0,0
-0.2239,0.2385,0.9958,-14.9313,101.0611,47.2214,0,0,0
-0.1724,0.2759,1.0479,-10.1908,109.0992,47.7023,0,0,0
-0.1604,0.2986,1.01,-4.2061,112.9313,42.9313,0,0,0
-0.2009,0.2927,0.9949,8.1374,113.3817,39.8397,0,0,0
-0.3259,0.313,0.8723,12.2672,104.3283,37.2748,0,0,0
-0.3979,0.2922,0.8323,13.0458,85.8702,38.1145,0,0,0
-0.4148,0.2961,0.7871,8.3282,72.0153,43.6565,0,0,0
-0.3586,0.3413,0.8101,3.7328,65.5725,46.7176,0,0,0
-0.3447,0.4617,0.8459,-6.916,57.7099,37.7099,0,0,0
-0.3291,0.3889,0.8484,-5.9771,55.1603,23.5191,0,0,0
-0.6521,0.334,0.5698,-0.1527,24.9695,23.229,0,0,0
-0.3369,0.3022,0.8943,1.9237,49.4504,26.6336,0,0,0
-0.3196,0.3784,0.8672,1.7405,50.4962,29.4427,0,0,0
-0.3704,0.3831,0.8191,-1.4275,46.4656,28.0916,0,0,0
-0.3931,0.3296,0.7839,-1.687,41.0382,24.0229,0,0,0
-0.4377,0.3044,0.7803,-0.4733,31.9542,23.4198,0,0,0
-0.4014,0.2507,0.7813,0.8244,25.1603,29.7405,0,0,0
-0.3889,0.2891,0.791,3.5725,19.8702,39.3282,0,0,0
-0.3833,0.3225,0.7747,2.8626,13.4962,41.9695,0,0,0
-0.3831,0.3804,0.7903,-0.9084,7.7481,40.542,0,0,0
-0.3757,0.3765,0.7996,-5.8092,2.3969,36.5573,0,0,0
-0.3433,0.3484,0.8367,-10.1069,2.4504,36.0992,0,0,0
-0.3433,0.3704,0.8462,-12.9542,4.5191,35.3282,0,0,0
-0.3494,0.3889,0.8242,-15.7557,3.5115,31.6794,0,0,0
-0.3711,0.3503,0.8345,-17.4427,-0.8321,28.3893,0,0,0
-0.3677,0.3145,0.8342,-15.7557,-4.2824,28.916,0,0,0
-0.3655,0.3181,0.8462,-14.1603,-6.4733,31.6031,0,0,0
-0.3574,0.3616,0.8694,-15.4733,-7.2061,34.5649,0,0,0
-0.355,0.3853,0.863,-19.1832,-7.7405,33.4809,0,0,0
-0.3669,0.3816,0.8552,-23.9542,-9.6718,30.5114,0,0,0
-0.3672,0.3777,0.8533,-28.3664,-12.1603,26.0916,0,0,0
-0.344,0.302,0.8853,-31.0534,-13.6489,26.2595,0,0,0
-0.3342,0.2769,0.9053,-30.6031,-13.0534,30.0076,0,0,0
-0.3264,0.2957,0.9211,-28.5878,-10.7557,34.374,0,0,0
-0.3462,0.3533,0.9224,-28.0076,-9.916,33.0229,0,0,0
-0.3457,0.3782,0.9194,-27.0611,-10.6412,26.6107,0,0,0
-0.3264,0.3208,0.9402,-23.6641,-10.8244,20.145,0,0,0
-0.3479,0.3044,0.9243,-16.3282,-11.374,18.8244,0,0,0
-0.3071,0.3008,0.929,-9.5267,-9.2672,17.3664,0,0,0
-0.3232,0.322,0.9402,-4.8855,-10.1603,15.8092,0,0,0
-0.3228,0.3318,0.9543,-2.7328,-9.7481,14.7939,0,0,0
-0.3237,0.3552,0.949,-1.1069,-9.0458,14.3282,0,0,0
-0.2996,0.3989,0.9626,-2.9542,-6.5115,9.0305,0,0,0
-0.2957,0.4011,0.9326,-1.8931,-6.1832,2.3893,0,0,0
-0.3025,0.3865,0.9548,-0.9084,-3.5802,-5.3359,0,0,0
-0.3125,0.3611,0.9438,3.6336,-3.0687,-11.145,0,0,0
-0.3196,0.3567,0.9653,10.5344,-2.3817,-17.7863,0,0,0
-0.3176,0.3477,0.9473,18.7481,-1.3511,-21.7481,0,0,0
-0.3252,0.3896,0.9309,25.9237,-2.5725,-26.5267,0,0,0
-0.3594,0.4265,0.8972,29.2977,-7.458,-35.1374,0,0,0
-0.3696,0.4155,0.8464,32.6107,-16.9847,-44.7863,0,0,0
-0.3872,0.397,0.8352,37.2137,-29.0153,-52.8779,0,0,0
-0.4009,0.3794,0.8042,42.9924,-42.4504,-58.4962,0,0,0
-0.3899,0.3474,0.7883,47.4427,-55.7634,-57.6641,0,0,0
-0.3733,0.3469,0.7859,50.5344,-66.5115,-53.4809,0,0,0
-0.3276,0.3682,0.8188,50.0611,-72.3283,-47.2366,0,0,0
-0.2744,0.3843,0.8691,45.4504,-72.7634,-41.5344,0,0,0
-0.2141,0.3982,0.9204,37.1145,-66.7786,-33.5191,0,0,0
-0.1638,0.4443,0.948,24.8473,-56.1145,-26.3053,0,0,0
-0.1682,0.4749,0.9521,12.1985,-45.6336,-25.6336,0,0,0
-0.1753,0.449,0.9502,2.1069,-37.626,-30.1527,0,0,0
-0.2231,0.4229,0.9417,-3.4122,-33.687,-33.6412,0,0,0
-0.2336,0.3662,0.9287,-1.4427,-33.3359,-34.0992,0,0,0
-0.2302,0.3218,0.936,4.4733,-36.4122,-30.3053,0,0,0
-0.24,0.314,0.9304,9.0153,-36.4962,-25.6107,0,0,0
-0.2224,0.3386,0.9653,15.5496,-31.3664,-23.1756,0,0,0
-0.1958,0.364,0.9758,21.9313,-25.9237,-25.4733,0,0,0
-0.2014,0.3811,0.981,25.145,-21.9313,-29.229,0,0,0
-0.2073,0.3721,0.9814,28.458,-19.4885,-33.5038,0,0,0
-0.2292,0.3716,0.9565,34.5878,-19.4198,-36.3588,0,0,0
-0.2395,0.406,0.9666,41.7481,-19.8931,-44.2519,0,0,0
-0.2251,0.3745,0.9678,51.313,-20.5344,-50.8168,0,0,0
-0.2485,0.3647,0.9441,59.8168,-21.4046,-52.5267,0,0,0
-0.2751,0.342,0.915,63.7328,-23.5267,-46.5267,0,0,0
-0.27,0.3223,0.9028,60.3511,-25.5114,-35.7405,0,0,0
-0.2463,0.4329,0.95,52.7099,-21.4275,-27.0153,0,0,0
-0.1819,0.4253,0.9587,39.8931,-13.6183,-22.1985,0,0,0
-0.1294,0.4829,1.0461,29.1832,1.542,-20.6565,0,0,0
-0.1399,0.49,1.0066,17.3053,12.8473,-22.1374,0,0,0
-0.1704,0.4512,1.0142,8.7786,22.0687,-22.1221,0,0,0
-0.1895,0.4224,1.0129,3.771,31.8397,-20.9618,0,0,0
-0.1997,0.408,1.0068,2.916,42.0229,-19.1298,0,0,0
-0.2151,0.3987,1.002,4.3282,50.5878,-17.0687,0,0,0
-0.2283,0.4272,0.9722,6.1298,56.5115,-16.8473,0,0,0
-0.2632,0.4358,0.9478,7.3053,58.0534,-19.3359,0,0,0
-0.2966,0.4375,0.9221,7.3053,57.7786,-21.3817,0,0,0
-0.302,0.405,0.9287,5.8473,58.9771,-20.2901,0,0,0
-0.2883,0.4016,0.9382,4.3893,63.4809,-16.2977,0,0,0
-0.2866,0.3982,0.9248,0.3664,69.6183,-12.6031,0,0,0
-0.2876,0.4766,0.9307,-5.6031,76.7863,-11.8015,0,0,0
-0.3047,0.4771,0.8965,-13.8168,80.0687,-14.8702,0,0,0
-0.353,0.4573,0.8611,-21.9466,78.2672,-14.4504,0,0,0
-0.4048,0.3979,0.8108,-31.1298,72.374,-9.4504,0,0,0
-0.4414,0.3655,0.7991,-38.2824,66.0382,0.7176,0,0,0
-0.436,0.2737,0.7737,-43.9008,64.4733,12.6794,0,0,0
-0.4009,0.2983,0.8447,-49.9008,66.6794,27.8626,0,0,0
-0.377,0.282,0.8242,-55.5573,69.2443,42.9924,0,0,0
-0.373,0.2268,0.8201,-60.8626,68.0763,63.7481,0,0,0
-0.4512,0.3311,0.7795,-59.0534,63.7252,76.7557,0,0,0
-0.4495,0.2078,0.771,-57.3435,51.3588,90.2061,0,0,0
-0.4714,0.3044,0.7292,-51.2977,41.8855,95.5038,0,0,0
-0.5037,0.3589,0.6909,-48.5344,31.4733,92.6031,0,0,0
-0.4629,0.4167,0.7251,-51.1756,21.3053,85.9924,0,0,0
-0.469,0.4451,0.7456,-52.313,13.4733,75.1527,0,0,0
-0.4348,0.4343,0.7419,-46.7557,8.5496,61.0687,0,0,0
-0.4141,0.4058,0.7839,-36.542,6.8855,50.7328,0,0,0
-0.4143,0.4277,0.8196,-28.3053,7.2366,43.2443,0,0,0
-0.3577,0.4583,0.8533,-23.2214,13.229,38.8702,0,0,0
-0.3574,0.4983,0.8484,-21.5496,18.9389,32.7634,0,0,0
-0.3867,0.5159,0.8218,-20.0763,19.9847,24.7863,0,0,0
-0.4382,0.5022,0.7769,-16.2595,16.1374,15.6794,0,0,0
-0.4661,0.4536,0.7905,-15.3969,9.9618,8.4733,0,0,0
-0.427,0.4417,0.7734,-15.5267,6.9847,8.7481,0,0,0
-0.4121,0.4814,0.7998,-15.4962,5.6336,7.4962,0,0,0
-0.4246,0.5017,0.7749,-17.7099,1.7405,2.8244,0,0,0
-0.4695,0.5139,0.7561,-19.313,-5.1679,-6.2366,0,0,0
-0.4763,0.5088,0.7646,-21.6183,-12.8626,-16.3282,0,0,0
-0.4512,0.5061,0.7737,-18.1145,-19.2137,-28.7023,0,0,0
-0.4109,0.51,0.7986,-11.8321,-23.1679,-40.916,0,0,0
-0.4023,0.4954,0.8213,-5.3435,-25.9618,-49.5649,0,0,0
-0.4497,0.5049,0.8062,3.0534,-30.7099,-58.916,0,0,0
-0.4963,0.4385,0.7727,17.0076,-42.0992,-69.458,0,0,0
-0.5083,0.4329,0.7256,34.0382,-59.7099,-81.9389,0,0,0
-0.5071,0.4067,0.7605,55.5038,-75.8397,-94.5496,0,0,0
-0.49,0.3396,0.7554,78.229,-91.9847,-101.145,0,0,0
-0.4639,0.3254,0.7585,97.4504,-102.9847,-96.1985,0,0,0
-0.3896,0.4075,0.8062,108.9466,-109.2901,-90.1374,0,0,0
-0.3396,0.5417,0.8223,106.5191,-113.6412,-95.5725,0,0,0
-0.2747,0.4902,0.8669,98.6947,-112.084,-100.6412,0,0,0
-0.2029,0.3794,0.9319,89.0458,-103.2824,-88.2519,0,0,0
-0.2205,0.3792,0.9617,75.6718,-92.6641,-64.4809,0,0,0
-0.2156,0.3914,0.9431,51.2519,-77.6412,-39.7939,0,0,0
-0.1736,0.4409,1.0034,19.9084,-57.542,-24.3511,0,0,0
-0.1133,0.4519,1.0547,-7.2595,-33.1221,-17.9313,0,0,0
-0.1013,0.3755,1.093,-26.6183,-9.7405,-12.7939,0,0,0
-0.1162,0.2297,1.1057,-37.084,13.3588,0.0916,0,0,0
-0.1572,0.1917,1.1113,-36.313,32.3053,18.4427,0,0,0
-0.2134,0.1589,1.0862,-29.3664,47.7023,33.1069,0,0,0
-0.2151,0.1619,1.0823,-19.374,58.6641,45.4656,0,0,0
-0.2632,0.1223,1.0496,-7.4351,67.313,66.7786,0,0,0
-0.2695,0.1138,1.0261,-5.9008,73.8168,92.3511,0,0,0
-0.2654,0.1785,0.9961,-5.6031,82.145,119.374,0,0,0
-0.291,0.2793,0.8904,-13.1832,82.6031,136.6565,0,0,0
-0.3379,0.4771,0.8162,-24.6718,72.2061,133.4886,0,0,0
-0.3916,0.5051,0.8369,-36.7481,62.2672,120.5878,0,0,0
-0.4177,0.4561,0.7881,-46.1069,53.5878,111.0382,0,0,0
-0.4182,0.4978,0.8289,-44.5496,49.6412,96.8855,0,0,0
-0.4165,0.478,0.8188,-32.374,45.9313,78.2366,0,0,0
-0.4097,0.5261,0.7935,-14.9237,40.084,56.5802,0,0,0
-0.3967,0.5171,0.7776,5.1527,31.9695,37.6336,0,0,0
-0.4038,0.5295,0.7788,21.7405,26.8168,24.8473,0,0,0
-0.3953,0.5193,0.7681,34.0534,23.1298,18.458,0,0,0
-0.4197,0.6565,0.7219,38.4962,18.0229,8.0458,0,0,0
-0.4504,0.7241,0.7,31.3664,7.8626,-7.1221,0,0,0
-0.4585,0.7605,0.6877,17.7405,-3.2214,-25.3435,0,0,0
-0.4531,0.7871,0.6475,11.3511,-13.3588,-46.229,0,0,0
-0.4099,0.8074,0.7354,3.8931,-18.7099,-69.7023,0,0,0
-0.4512,0.8123,0.7009,-0.687,-27.1985,-93.3893,0,0,0
-0.4827,0.7053,0.6824,-4.9313,-40.5802,-108.6565,0,0,0
-0.4976,0.5813,0.7,-11.1832,-58.7405,-107.855,0,0,0
-0.5012,0.5225,0.6399,-17.6718,-76.374,-97.1374,0,0,0
-0.4504,0.4314,0.7234,-24.7405,-89.4962,-91.0916,0,0,0
-0.3408,0.2397,0.8113,-19.9084,-94.8473,-79.2137,0,0,0
-0.2065,0.1021,0.9397,-7.1908,-88.0305,-59.2824,0,0,0
-0.0667,0.0203,1.1326,10.6107,-56.6107,-18.4275,0,0,0
-0.0232,0.2727,1.167,19.9466,-16.8779,2.1145,0,0,0
-0.0288,0.3354,1.0962,19.1985,10.3435,2.7405,0,0,0
-0.0654,0.1653,1.136,23.0687,30.458,9.3053,0,0,0
-0.1719,0.1716,1.1042,31.8626,50.3817,27.8397,0,0,0
-0.1799,0.0569,1.074,39.0763,69.4886,60.0992,0,0,0
-0.1987,0.2349,1.0076,44.9542,83.4504,91.0916,0,0,0
-0.2527,0.4058,0.8936,38.5038,82.2824,103.5725,0,0,0
-0.3696,0.5652,0.781,19.6718,65.1679,102.0305,0,0,0
-0.4851,0.7283,0.6558,-10.4198,42.4046,86.4275,0,0,0
-0.5212,0.7996,0.6621,-40.2672,19.1069,55.7634,0,0,0
-0.4785,0.7485,0.6987,-46.9695,8.0611,14.4198,0,0,0
-0.4221,0.7097,0.6528,-41.1374,-1.2977,-17.6718,0,0,0
-0.4192,0.8198,0.7708,-37.6336,-6.5191,-46.8931,0,0,0
-0.4541,0.9004,0.6748,-38.3359,-11.4122,-78.4657,0,0,0
-0.4712,0.77,0.7383,-41.8092,-25.0916,-104.7634,0,0,0
-0.5774,0.6851,0.6531,-46.3359,-37.4351,-116.6412,0,0,0
-0.5684,0.5889,0.6165,-53.7786,-56.8702,-122.542,0,0,0
-0.5254,0.5601,0.6694,-62.3969,-79.0076,-124.8321,0,0,0
-0.4333,0.4351,0.668,-68.7176,-95.6641,-126.4046,0,0,0
-0.3579,0.3132,0.6934,-74.2901,-111.6947,-118.8397,0,0,0
-0.3225,0.3184,0.7476,-76.1145,-122.7023,-108.6031,0,0,0
-0.322,0.3777,0.7622,-78.7023,-131.4733,-109.0382,0,0,0
-0.3162,0.2434,0.7954,-82.0687,-137.3282,-107.0382,0,0,0
-0.3015,0.1177,0.8269,-79.9695,-141.4427,-90.1679,0,0,0
-0.2764,0.022,0.8501,-74.4962,-142.1679,-60.9618,0,0,0
-0.2117,0.0159,0.8889,-71.4351,-140.5649,-36.374,0,0,0
-0.1387,0.0381,0.95,-65.2519,-136.916,-22.9618,0,0,0
0.0071,-0.1211,1.0354,-52.4351,-127.542,-18.4427,0,0,0
-0.0093,-0.0566,1.0874,-23.6565,-114.8702,-3.6489,0,0,0
0.0259,-0.0452,1.1238,5.0687,-102.6031,-8.5496,0,0,0
0.0352,-0.0566,1.1924,34.1069,-87.4351,-7.5038,0,0,0
-0.022,-0.0073,1.1113,58.6031,-74.2519,3.7786,0,0,0
-0.0308,0.0359,1.1211,73.6641,-58.5344,18.2672,0,0,0
-0.0432,0.2119,1.0723,74.6031,-46.5344,31.2672,0,0,0
-0.0613,0.3325,1.011,63.1679,-38.2519,34.5115,0,0,0
-0.0735,0.3513,0.9932,44.3359,-29.4656,37.0153,0,0,0
-0.1006,0.3594,0.9761,25.3206,-21.3664,45.5649,0,0,0
-0.0916,0.511,0.9507,3.7328,-17.4962,45.6412,0,0,0
-0.073,0.5876,0.9507,-20.3664,-12.626,27.0763,0,0,0
-0.0732,0.4878,0.9397,-40.084,-9.6107,7.2901,0,0,0
-0.0803,0.3,0.9661,-47.5725,-8.8626,4.4351,0,0,0
-0.051,0.1367,1.0608,-38.1832,-3.4427,14.2366,0,0,0
-0.0444,0.1106,1.0503,-20.313,3.0382,22.5878,0,0,0
0.001,0.1235,1.041,-2.7023,4.8015,26.4275,0,0,0
-0.0903,0.1697,0.9873,10.0992,2.0305,34.0763,0,0,0
-0.0764,0.2029,0.9797,16.3511,-4.9389,30.4427,0,0,0
-0.054,0.3555,0.9932,16.5878,-2.9618,15.1679,0,0,0
-0.0139,0.2224,1.0083,15.2061,-3.4427,4.6718,0,0,0
-0.0215,0.1592,1.0591,16.0611,2.5115,11.5954,0,0,0
-0.0388,0.2039,1.0786,16.0687,12.7176,22.1832,0,0,0
-0.0337,0.2,1.0603,10.1298,20.4656,27.7252,0,0,0
-0.0273,0.1941,1.0554,4.8397,26.2977,32.1832,0,0,0
-0.0527,0.1516,1.0312,0.5038,27.4046,40.2519,0,0,0
-0.0564,0.1123,1.0386,-3.0992,27.3511,53.2901,0,0,0
-0.0349,0.0916,1.0464,-3.1985,29.8092,72.5954,0,0,0
-0.0227,0.1431,1.0464,-4.0153,32.6947,82.6641,0,0,0
0.0198,0.1218,1.05,-6.9847,38.3664,90.9084,0,0,0
-0.0364,0.1533,0.9993,-5.3893,36.7405,102.6107,0,0,0
0.0,0.0625,1.0923,-8.8092,38.9237,119.6183,0,0,0
0.0095,0.0513,1.0171,-10.4962,42.5344,144.1756,0,0,0
0.0181,0.3477,0.9475,-23.7786,41.1756,137.8397,0,0,0
-0.03,0.2949,1.0354,-31.3206,44.6794,120.3206,0,0,0
-0.0405,0.3306,1.0273,-40.8092,49.5038,106.3893,0,0,0
0.0989,0.2246,1.1406,-38.4885,59.6641,110.5802,0,0,0
0.01,0.2056,1.0886,-31.4275,73.9237,106.3817,0,0,0
0.0178,0.1721,1.009,-16.3969,74.8855,106.626,0,0,0
-0.0815,0.1548,0.9536,1.1527,65.2214,107.2748,0,0,0
-0.2439,0.2407,0.9683,11.3969,57.2748,106.542,0,0,0
-0.1963,0.2603,0.9419,16.1603,48.1298,110.4962,0,0,0
-0.1589,0.4309,0.9753,18.687,41.8626,111.4504,0,0,0
-0.1975,0.4119,0.9158,14.5267,35.7405,98.2595,0,0,0
-0.2937,0.478,0.9351,8.5802,23.4351,81.4275,0,0,0
-0.2168,0.4248,0.9111,2.4427,18.3511,70.6031,0,0,0
-0.1118,0.4216,0.9475,4.855,15.9695,66.2061,0,0,0
-0.1458,0.4141,0.9746,7.542,11.9466,60.0687,0,0,0
-0.1743,0.4365,0.9551,5.1145,6.5954,51.145,0,0,0
-0.1694,0.425,0.959,9.0687,1.8931,45.5802,0,0,0
-0.1167,0.3843,0.9534,8.084,0.8473,42.687,0,0,0
-0.0911,0.4407,1.0244,7.4733,4.1908,37.9389,0,0,0
-0.0637,0.4482,0.9675,5.4962,6.9695,29.7099,0,0,0
-0.1001,0.3616,0.9319,4.5115,6.0153,22.2672,0,0,0
-0.1099,0.4414,0.9973,5.2748,4.0,17.9847,0,0,0
-0.1018,0.4351,0.917,1.4122,0.3893,11.5267,1,0,0
-0.1272,0.4131,0.8904,-2.4885,-6.4656,7.3206,1,0,0
-0.1309,0.417,0.8982,-6.084,-12.3435,2.6565,1,0,0
-0.1169,0.3765,0.8687,-9.1527,-18.2824,-0.6336,1,0,0
-0.0815,0.3506,0.917,-12.2137,-20.6183,-1.1221,1,0,0
-0.0488,0.3584,0.9333,-13.7023,-19.8015,-0.7252,1,0,0
-0.031,0.3596,0.947,-14.0229,-17.2977,-3.1298,1,0,0
-0.0479,0.3635,0.9478,-13.0458,-15.9618,-7.6489,1,0,0
-0.0647,0.3499,0.9431,-11.626,-16.7634,-12.0,1,0,0
-0.0732,0.3345,0.9492,-10.2901,-17.5573,-13.2748,1,0,0
-0.0696,0.3494,0.9307,-8.5954,-17.9237,-14.6412,1,0,0
-0.0691,0.3682,0.9468,-6.1603,-19.4809,-20.4962,1,0,0
-0.0823,0.3779,0.9387,0.8321,-23.2595,-28.9695,1,0,0
-0.0938,0.3879,0.9229,7.7786,-28.8015,-35.9695,1,0,0
-0.0769,0.3425,0.927,7.2519,-33.6947,-37.1832,1,0,0
-0.0491,0.3723,0.9534,3.1832,-34.6718,-33.0611,1,0,0
-0.031,0.3684,0.9639,-0.1527,-31.8473,-30.6183,1,0,0
-0.0256,0.3906,0.96,-3.916,-30.0,-31.0153,1,0,0
-0.0359,0.4001,0.9504,-9.2214,-29.4427,-33.9924,1,0,0
-0.0571,0.3989,0.9456,-16.1374,-31.8397,-37.2672,1,0,0
-0.0632,0.3647,0.9326,-22.6718,-35.5038,-40.8397,1,0,0
-0.0435,0.2971,0.9351,-26.5038,-37.3511,-38.2443,1,0,0
-0.0063,0.282,0.979,-29.5725,-34.2519,-32.2519,1,0,0
0.0144,0.3071,0.9856,-30.6489,-29.2901,-29.3053,1,0,0
0.0049,0.3157,0.9878,-31.1985,-26.2672,-32.7786,1,0,0
-0.0056,0.2935,0.9729,-31.3053,-25.8015,-36.9084,1,0,0
-0.0273,0.2729,0.9768,-31.5649,-26.3969,-38.3817,1,0,0
-0.0396,0.2424,0.9663,-30.2595,-29.0763,-38.3435,1,0,0
-0.0364,0.2261,0.9751,-27.4504,-33.3588,-39.3282,1,0,0
-0.0149,0.1775,0.9917,-21.9542,-35.7939,-38.3435,1,0,0
0.0144,0.1345,1.0171,-15.1527,-35.4809,-33.8855,1,0,0
0.0562,0.1492,1.0449,-9.4809,-30.084,-25.5267,1,0,0
0.062,0.1782,1.0403,-6.3282,-24.3511,-20.8931,1,0,0
0.0493,0.2146,1.0371,-5.916,-20.4427,-20.6183,1,0,0
0.0171,0.22,1.0308,-6.8168,-18.5878,-22.7863,1,0,0
-0.0007,0.186,1.0244,-6.7939,-17.7099,-23.7481,1,0,0
-0.0051,0.1758,1.0317,-5.2519,-17.8931,-21.4504,1,0,0
-0.0002,0.1721,1.0364,-2.7252,-17.0153,-18.3893,1,0,0
0.009,0.1838,1.0344,0.1298,-16.2443,-15.2137,1,0,0
0.0139,0.1909,1.0334,1.3664,-14.6489,-13.3969,1,0,0
0.0046,0.2009,1.0442,2.229,-12.4962,-11.1221,1,0,0
0.0049,0.2214,1.0403,0.687,-10.2672,-10.626,1,0,0
0.0015,0.2095,1.0398,-1.2137,-8.9008,-10.313,1,0,0
0.009,0.2063,1.0454,-3.1603,-8.0229,-9.3053,1,0,0
0.0107,0.2014,1.0547,-4.313,-6.7099,-8.2595,1,0,0
0.0007,0.1936,1.0376,-4.6336,-6.4275,-7.4351,1,0,0
-0.0132,0.1838,1.0366,-3.8244,-6.3664,-6.9695,1,0,0
-0.0146,0.1807,1.0244,-2.8244,-6.5115,-4.8321,1,0,0
-0.0059,0.2009,1.0374,-2.6336,-5.8626,-3.2977,1,0,0
0.01,0.2065,1.032,-2.4122,-4.6947,-4.2748,1,0,0
0.0127,0.199,1.0356,-0.6489,-3.8092,-4.2901,1,0,0
0.0132,0.2083,1.0403,1.4351,-1.9466,-2.542,1,0,0
0.0027,0.218,1.0342,1.9924,-0.4427,-0.6794,1,0,0
-0.0034,0.2251,1.0225,1.6336,-0.5725,-0.1374,1,0,0
-0.0098,0.2246,1.0144,0.7863,-1.5496,0.458,1,0,0
0.002,0.2302,1.0164,-0.5573,-2.7557,1.6183,1,0,0
0.0115,0.2375,1.0151,-1.3893,-3.2214,2.3435,1,0,0
0.0151,0.2395,1.0149,-1.8015,-3.0229,3.0,1,0,0
0.0234,0.2446,1.0195,-2.2977,-2.458,3.1832,1,0,0
0.0239,0.2517,1.0305,-2.3206,-1.3206,2.0076,1,0,0
0.0305,0.248,1.0283,-1.2061,0.6718,0.7099,1,0,0
0.0203,0.2449,1.0134,-0.2519,1.2443,0.7023,1,0,0
0.0151,0.2417,1.0093,0.8321,1.6183,0.7786,1,0,0
0.0132,0.2478,1.0054,0.9771,0.5115,1.4504,1,0,0
0.0134,0.2451,1.0012,0.4885,-0.2901,1.6794,1,0,0
0.0247,0.2522,0.9988,0.0305,-0.2366,2.0611,1,0,0
0.031,0.2629,0.9939,-0.916,0.229,1.6565,1,0,0
0.0317,0.2607,0.9988,-1.6565,0.6412,0.7405,1,0,0
0.0183,0.249,0.9922,-1.8092,0.542,-0.0916,1,0,0
0.0173,0.2388,0.9851,-0.9924,-0.1145,0.1679,1,0,0
0.019,0.2454,0.9836,-0.7786,-0.2901,1.6947,1,0,0
0.022,0.2532,0.9893,-0.5725,-0.3053,1.542,1,0,0
0.019,0.251,0.9775,-0.6336,-1.3206,1.5573,1,0,0
0.0183,0.2507,0.9929,-0.7481,-2.4275,1.2672,1,0,0
0.0303,0.2449,0.9897,-1.0,-2.6947,1.4809,1,0,0
0.0278,0.2466,0.99,-0.7099,-3.3359,1.7328,1,0,0
0.0291,0.2437,0.99,-0.1221,-3.8855,1.4733,1,0,0
0.0278,0.2544,1.0005,0.5573,-4.1679,1.1603,1,0,0
0.0364,0.2495,1.0066,1.9771,-2.771,0.542,1,0,0
0.0374,0.2468,1.0132,2.8702,-1.542,1.0992,1,0,0
0.0332,0.2676,1.0129,3.2672,0.3435,0.5573,1,0,0
0.0251,0.2639,1.0046,2.6489,0.9618,-0.0763,1,0,0
0.02,0.2642,1.0007,1.9542,0.0305,-0.3206,1,0,0
0.022,0.2664,0.9907,0.4351,-0.5573,-0.4122,1,0,0
0.0264,0.271,0.9907,-0.4885,-1.3359,-0.5496,1,0,0
0.0276,0.2566,0.9949,-1.1221,-1.4809,-0.6565,1,0,0
0.0198,0.2725,0.9915,-1.6947,-1.0076,-0.7099,1,0,0
0.0234,0.2517,0.9932,-2.3053,-1.1756,-1.1832,1,0,0
0.0212,0.2476,0.9915,-1.7328,-1.3893,-1.3664,1,0,0
0.0278,0.2441,0.9968,-0.8779,-1.9389,-0.7786,1,0,0
0.0332,0.2539,0.9915,-0.7481,-2.0,-0.7481,1,0,0
0.0293,0.2493,0.9963,-0.1298,-1.8244,-0.3282,1,0,0
0.0278,0.2476,0.9968,0.2443,-1.6107,-0.5267,1,0,0
0.0273,0.2498,1.0034,0.0153,-1.2672,-0.3053,1,0,0
0.0288,0.2561,0.9993,-0.0305,-1.0229,-0.5878,1,0,0
0.0291,0.2551,1.0017,-0.0763,-0.8473,-1.2214,1,0,0
0.0347,0.2603,1.0,-0.7939,-0.7405,-1.0763,1,0,0
0.0332,0.2522,0.9944,-1.4427,-0.4198,-1.2443,1,0,0
0.0288,0.248,0.9841,-1.8397,-0.7023,-1.1145,1,0,0
0.0234,0.2488,0.9795,-2.1985,-1.3282,-1.1527,1,0,0
0.012,0.2412,0.9812,-2.4046,-2.0153,-0.9771,1,0,0
0.0132,0.2397,0.9858,-1.8244,-2.4427,-0.5725,1,0,0
0.021,0.2495,0.9861,-1.0382,-2.6718,-0.4427,1,0,0
0.0273,0.2493,0.9978,-0.0916,-2.7634,-0.3588,1,0,0
0.0332,0.2493,0.998,-0.0611,-2.0076,-0.8092,1,0,0
0.0271,0.2524,1.0068,-0.0611,-1.6031,-0.458,1,0,0
0.0195,0.2559,1.0012,-0.2977,-1.2137,-0.8855,1,0,0
0.0186,0.2537,1.0029,-2.1908,-1.2366,-0.8397,1,0,0
0.0281,0.2502,1.0015,-3.2824,-1.0458,-0.8168,1,0,0
0.0322,0.2456,0.9939,-3.7786,-1.145,-1.3664,1,0,0
0.0273,0.2329,0.9893,-3.7099,-1.7023,-0.8015,1,0,0
0.0278,0.2288,0.9961,-2.084,-1.8397,-0.0534,1,0,0
0.0247,0.2388,0.999,-0.3206,-1.7481,0.8473,1,0,0
0.0249,0.2502,1.0007,0.6947,-1.3053,1.4046,1,0,0
0.0273,0.2605,0.9971,0.3817,-0.8321,0.8473,1,0,0
0.0315,0.261,0.9922,-0.7634,-0.7328,0.0611,1,0,0
0.0266,0.261,0.9946,-1.2901,-1.5649,0.2214,1,0,0
0.0193,0.2507,0.9768,-1.7939,-2.8397,0.7328,1,0,0
0.0237,0.2522,0.9871,-1.7481,-4.1985,1.2901,1,0,0
0.0313,0.2585,0.9949,-1.7328,-4.1832,1.0611,1,0,0
0.0374,0.2612,1.0039,-1.6794,-3.7328,0.9771,1,0,0
0.0427,0.2649,1.0125,-1.3817,-1.8092,0.8397,1,0,0
0.0325,0.2681,0.999,-1.5802,-0.7939,0.0229,1,0,0
0.0308,0.2615,1.0054,-1.0611,-1.2824,0.1221,1,0,0
0.0244,0.2556,1.0098,-0.1756,-2.6336,0.4656,1,0,0
0.0288,0.2549,1.0134,0.7939,-2.9389,0.5573,1,0,0
0.0405,0.2659,1.0156,1.1374,-2.0763,0.6794,1,0,0
0.0493,0.2747,1.019,0.687,-0.6107,0.0076,1,0,0
0.0491,0.2773,1.0034,-0.6565,0.3817,-1.1756,1,0,0
0.0344,0.2632,0.9973,-1.7634,0.5725,-1.1985,1,0,0
0.0256,0.2581,0.991,-1.7481,0.1603,-1.0534,1,0,0
0.0212,0.2517,0.9929,-1.4275,-0.4885,-0.9008,1,0,0
0.0359,0.2568,0.9998,-1.0,-0.2214,-0.771,1,0,0
0.042,0.2539,0.9934,-0.4733,0.2595,-0.8473,1,0,0
0.0413,0.2568,0.9915,-0.1221,0.6794,-0.9542,1,0,0
0.0264,0.2583,0.9763,-0.5573,0.6718,-0.9847,1,0,0
0.0208,0.2527,0.9814,-1.5191,0.2137,-0.9695,1,0,0
0.0156,0.2498,0.981,-2.2061,-1.0763,-0.5267,1,0,0
0.0237,0.2446,0.9807,-2.0076,-1.9847,-0.2366,1,0,0
0.0349,0.2437,0.9971,-1.2061,-2.084,0.8168,1,0,0
0.0366,0.2537,1.0049,-0.2748,-1.3969,0.9389,1,0,0
0.0383,0.2556,0.989,-0.0229,-1.1756,0.1908,1,0,0
0.0305,0.2561,0.9907,-0.0992,-1.0229,-0.1374,1,0,0
0.032,0.2527,0.9963,-0.2824,-1.1679,0.2748,1,0,0
0.0315,0.2524,0.9961,-0.4733,-1.2672,0.3893,1,0,0
0.043,0.2544,0.9956,-0.7176,-0.6794,1.0687,1,0,0
0.0461,0.2612,0.9954,-1.1603,-0.0763,0.7176,1,0,0
0.0354,0.2639,0.9873,-1.9542,0.4275,0.2595,1,0,0
0.0303,0.2576,0.9763,-2.855,-0.0534,0.0458,1,0,0
0.0281,0.2517,0.978,-2.8473,0.0611,0.0916,1,0,0
0.0278,0.2456,0.979,-1.6412,-1.3359,0.145,1,0,0
0.0317,0.2454,0.9812,-0.2824,-2.0687,0.5878,1,0,0
0.0303,0.2561,0.9814,0.9695,-2.5878,1.2824,1,0,0
0.0291,0.2612,0.99,1.1145,-3.0611,1.0458,1,0,0
0.033,0.2681,0.9949,0.7863,-3.0229,0.9924,1,0,0
0.0383,0.2732,1.01,-0.1298,-2.2443,0.4962,1,0,0
0.0366,0.2764,0.9939,-1.3282,-1.9771,-0.1069,1,0,0
0.0327,0.271,0.9907,-2.7786,-2.8092,-0.4427,1,0,0
0.0369,0.2639,0.9985,-2.8168,-3.0992,-0.2824,1,0,0
0.0325,0.2627,1.0056,-2.8015,-3.7099,-0.3817,1,0,0
0.0388,0.2644,0.9968,-2.1374,-3.687,-0.687,1,0,0
0.0376,0.2668,0.9963,-1.4046,-3.8397,-1.1374,1,0,0
0.0386,0.2629,1.001,-0.5573,-4.2672,-1.7481,1,0,0
0.0417,0.2712,1.0032,0.7176,-5.0611,-2.6031,1,0,0
0.0391,0.2693,0.9973,1.687,-5.8931,-3.3893,1,0,0
0.0352,0.29,0.9966,3.0687,-7.4351,-5.3664,1,0,0
0.0334,0.3071,0.9788,3.2748,-9.4504,-8.9466,1,0,0
0.0264,0.3206,0.9631,3.9008,-13.0153,-13.7405,1,0,0
0.0129,0.3232,0.9565,4.6336,-18.145,-20.6336,1,0,0
0.0098,0.3118,0.9512,9.2061,-25.229,-26.4275,1,0,0
-0.0239,0.2734,0.9124,14.1679,-38.0229,-30.0611,1,0,0
-0.0159,0.2983,0.9058,18.7099,-49.3664,-29.9008,1,0,0
0.0044,0.2871,0.8879,22.7099,-59.687,-29.916,1,0,0
0.0425,0.2712,0.885,25.4046,-67.9847,-27.2748,1,0,0
0.0857,0.2898,0.9155,25.1832,-70.9695,-22.855,1,0,0
0.1255,0.3352,0.9512,21.4122,-68.0229,-21.687,1,0,0
0.1855,0.2998,0.9983,16.6107,-59.5573,-22.7863,1,0,0
0.2266,0.3289,1.0466,14.5954,-45.5038,-21.1679,1,0,0
0.2485,0.3413,1.0522,11.3969,-29.0,-20.8015,1,0,0
0.2214,0.3623,1.0437,6.2061,-15.5267,-19.7405,1,0,0
0.1946,0.3818,1.032,-0.8397,-6.4733,-22.5725,1,0,0
0.1794,0.3333,1.0222,-5.5954,0.1221,-26.1603,1,0,0
0.1523,0.2905,1.0061,-4.626,2.7328,-26.9542,1,0,0
0.1348,0.2822,0.9971,-3.5496,3.313,-24.458,1,0,0
0.1238,0.2959,0.9753,-3.5802,1.9466,-22.9237,1,0,0
0.1204,0.2881,0.9578,-4.4198,-1.374,-21.3893,1,0,0
0.1135,0.2876,0.9678,-5.8168,-4.9313,-20.9466,1,0,0
0.115,0.2727,0.9817,-8.0305,-7.6641,-20.0763,1,0,0
0.1213,0.2537,1.0037,-9.9008,-7.1985,-17.7405,1,0,0
0.1248,0.2375,1.0315,-10.7863,-4.8015,-13.6336,1,0,0
0.136,0.248,1.041,-9.4198,-0.2672,-8.6412,1,0,0
0.1311,0.2568,1.0354,-8.3664,3.0992,-6.5649,1,0,0
0.1147,0.2456,1.0266,-7.4656,5.4351,-4.374,1,0,0
0.0989,0.2468,1.0022,-5.9466,5.5115,-1.5344,1,0,0
0.0891,0.248,0.989,-3.2443,4.0229,1.3893,1,0,0
0.0903,0.2559,0.9832,-0.4656,2.1603,2.6947,1,0,0
0.0984,0.2871,0.989,1.8321,1.3282,2.1527,1,0,0
0.1084,0.2842,0.9753,3.4962,1.084,1.7023,1,0,0
0.113,0.2844,0.9858,6.0153,0.8092,2.374,1,0,0
0.1184,0.3018,0.9746,5.9847,2.3969,3.4275,1,0,0
0.1167,0.3328,0.9841,3.8321,4.8702,3.1374,1,0,0
0.1147,0.3269,0.9766,0.3588,5.916,1.626,1,0,0
0.1008,0.3206,0.9651,-0.9771,4.7557,1.0229,1,0,0
0.1035,0.3215,0.9714,-2.5573,4.6412,-0.0458,1,0,0
0.1038,0.3096,0.9734,-2.3588,3.6718,-0.9771,1,0,0
0.1101,0.2986,0.9814,-0.9924,3.7176,-0.3893,1,0,0
0.1108,0.2998,0.9797,-0.1221,4.6336,0.7786,1,0,0
0.1118,0.3062,0.9771,-0.5954,4.9084,1.2977,1,0,0
0.1169,0.3032,0.9875,-1.9008,6.1527,2.5115,1,0,0
0.1211,0.302,0.9973,-3.7099,8.4733,4.2366,1,0,0
0.1272,0.2947,0.9956,-5.9466,10.8397,4.9924,1,0,0
0.1262,0.2939,0.9958,-7.1908,12.8168,5.1985,1,0,0
0.1221,0.2593,1.0049,-7.2977,14.4275,7.1756,1,0,0
0.1155,0.2415,1.0088,-6.4962,16.7328,10.0229,1,0,0
0.1226,0.2051,1.011,-5.313,21.1756,18.2137,1,0,0
0.1172,0.2373,1.0125,-6.4198,25.0763,26.229,1,0,0
0.1191,0.2336,1.0046,-10.626,28.2214,34.8855,1,0,0
0.012,0.3821,0.9299,-21.7176,28.084,37.7328,1,0,0
0.1301,0.2173,0.9885,-25.4275,32.3053,50.3969,1,0,0
0.0999,0.2512,0.9788,-31.7328,31.8931,56.1298,0,0,0
0.071,0.2747,0.9585,-37.3511,26.8168,55.7176,0,0,0
0.051,0.2598,0.9492,-42.4198,21.4962,53.6107,0,0,0
0.0442,0.2551,0.968,-43.0992,17.8397,49.8015,0,0,0
