ax,ay,az,gx,gy,gz,left_click,right_click
0.0981,0.2847,0.9822,-5.0229,3.7939,-1.9847,0,0,0
0.0596,0.292,0.9697,-6.8015,0.5649,-0.0153,0,0,0
0.0674,0.2729,0.9639,-8.4351,-0.7481,-1.0458,0,0,0
0.0796,0.2654,0.9812,-8.4046,-2.1832,-0.5115,0,0,0
0.084,0.2542,0.9783,-6.8473,-2.6794,0.7099,0,0,0
0.0964,0.2522,0.998,-5.9084,-2.8015,2.2824,0,0,0
0.094,0.2625,1.0066,-6.2748,-1.4351,3.2137,0,0,0
0.0974,0.2639,1.0081,-5.9237,-0.2672,3.7634,0,0,0
0.0916,0.262,0.999,-5.8244,0.9313,4.3511,0,0,0
0.0862,0.2729,0.9822,-5.916,0.8931,4.3435,0,0,0
0.0862,0.2764,0.9851,-6.8244,0.374,4.7939,0,0,0
0.0854,0.2747,0.9785,-6.5954,-0.0763,4.8168,0,0,0
0.0867,0.2813,0.9871,-5.5725,-0.3435,5.2977,0,0,0
0.0867,0.2915,0.99,-4.3893,-0.7099,5.1679,0,0,0
0.0864,0.3054,0.9941,-3.8779,-0.9084,4.1756,0,0,0
0.0901,0.311,0.9871,-4.9924,-0.5267,3.8244,0,0,0
0.0974,0.3064,0.9812,-5.9924,-0.1985,3.8244,0,0,0
0.1025,0.2988,0.9797,-6.1298,0.4046,3.7176,0,0,0
0.1101,0.3123,0.9839,-6.0763,0.687,3.9084,0,0,0
0.1055,0.3062,0.9812,-5.687,1.1756,3.687,0,0,0
0.1006,0.3188,0.9624,-4.7557,1.0382,3.6794,0,0,0
0.0964,0.3306,0.9521,-3.4885,0.2061,2.7786,0,0,0
0.0928,0.3376,0.9583,-3.8473,-1.4198,2.0,0,0,0
0.0925,0.3264,0.9541,-3.2901,-2.2595,1.0916,0,0,0
0.0979,0.3247,0.9631,-1.8397,-3.1298,0.3053,0,0,0
0.0969,0.3262,0.9697,-0.7634,-3.1145,0.0229,0,0,0
0.1028,0.3293,0.9746,-0.6718,-3.1985,-0.5573,0,0,0
0.1013,0.3271,0.9773,-2.4046,-3.0534,-1.3053,0,0,0
0.095,0.3096,0.9705,-3.4504,-3.1221,-1.6947,0,0,0
0.0979,0.2983,0.98,-2.7557,-3.2519,-1.9695,0,0,0
0.104,0.3003,0.978,-2.0153,-3.5725,-2.229,0,0,0
0.1016,0.3022,0.9905,-2.3282,-3.771,-2.2443,0,0,0
0.1077,0.2993,0.9954,-2.4962,-3.9466,-2.8015,0,0,0
0.1094,0.2932,0.9917,-2.0611,-2.8931,-3.0305,0,0,0
0.1086,0.2827,0.9961,-1.2672,-2.3206,-3.2061,0,0,0
0.1028,0.2947,1.0,-0.7634,-1.5115,-3.6107,0,0,0
0.1062,0.2905,0.9939,-1.6489,-1.1221,-4.0382,0,0,0
0.1025,0.2866,0.9856,-1.7099,-1.0305,-4.0611,0,0,0
0.1003,0.2917,0.9797,-1.1908,-1.1985,-3.9237,0,0,0
0.0942,0.2954,0.9797,-1.2595,-1.7557,-4.1679,0,0,0
0.0989,0.2942,0.9761,-1.0229,-2.458,-4.2672,0,0,0
0.1013,0.2974,0.9768,-1.626,-1.8779,-4.2366,0,0,0
0.0984,0.2969,0.9792,-2.3053,-1.7252,-4.6718,0,0,0
0.0967,0.2947,0.9763,-3.084,-1.6641,-5.4122,0,0,0
0.0896,0.2957,0.9763,-3.7481,-1.7481,-5.8702,0,0,0
0.0898,0.2874,0.969,-4.9847,-3.4733,-5.5802,0,0,0
0.0916,0.3022,0.9712,-5.2061,-4.2137,-5.4198,0,0,0
0.085,0.2874,0.9832,-5.2672,-5.3359,-7.5954,0,0,0
0.1035,0.2732,0.998,-6.2214,-5.0992,-7.7405,0,0,0
0.1028,0.2732,0.9963,-7.3893,-4.145,-5.7405,0,0,0
0.1138,0.2632,1.0005,-9.4962,-3.1145,-3.2061,0,0,0
0.1123,0.249,0.9951,-11.8702,-1.916,0.2061,0,0,0
0.1101,0.2385,0.9971,-14.5267,-2.1069,2.9466,0,0,0
0.1123,0.2415,0.9912,-17.1069,-2.8626,5.4504,0,0,0
0.1199,0.2146,0.9976,-17.3359,-3.1145,7.4809,0,0,0
0.1194,0.2073,0.998,-15.2901,-2.8092,8.3435,0,0,0
0.1145,0.1956,0.9983,-10.7863,-2.0153,8.9695,0,0,0
0.1067,0.207,0.9851,-5.4962,-1.145,9.9084,0,0,0
0.0957,0.2266,0.9902,-1.5267,-2.2137,11.916,0,0,0
0.1094,0.2498,1.0059,1.8626,-2.7252,12.4275,0,0,0
0.1104,0.2634,1.0181,4.3206,-1.3664,12.9618,0,0,0
0.1035,0.2749,1.0264,5.4809,0.0611,12.3511,0,0,0
0.1135,0.2915,1.0312,5.8015,2.4733,11.3588,0,0,0
0.1189,0.2849,1.0344,5.3969,5.3282,9.3359,0,0,0
0.103,0.2991,1.0146,3.5115,7.458,8.1908,0,0,0
0.0957,0.302,0.9995,1.8779,8.0076,7.3435,0,0,0
0.1021,0.281,1.0146,0.0611,8.4046,7.8092,0,0,0
0.1152,0.282,1.0432,-0.0534,10.6641,8.7939,0,0,0
0.1062,0.3074,1.0369,-1.2137,13.6336,8.4809,0,0,0
0.0984,0.2974,1.0083,-2.1832,16.6183,7.0076,0,0,0
0.082,0.3018,0.9929,-3.3817,15.6412,5.8244,0,0,0
0.0793,0.2822,0.9878,-4.6412,13.8015,5.1298,0,0,0
0.0823,0.251,1.0,-3.5115,11.6641,5.1603,0,0,0
0.0884,0.2285,1.0259,-2.1679,11.0382,7.4885,0,0,0
0.1165,0.2173,1.0583,0.0611,13.6489,11.0458,0,0,0
0.1096,0.2263,1.0627,0.3893,18.2443,15.0,0,0,0
0.0977,0.2561,1.0447,-2.2366,22.8473,17.9618,0,0,0
0.1228,0.22,1.0696,-7.6718,24.8931,20.9008,0,0,0
0.1467,0.1882,1.1206,-12.8321,30.8779,28.0763,0,0,0
0.2046,0.1409,1.2002,-18.0305,43.5573,37.9695,0,0,0
0.2124,0.1799,1.1963,-21.855,61.5954,49.9466,0,0,0
0.1885,0.2083,1.116,-28.3893,80.8931,60.8321,0,0,0
0.1045,0.2383,1.0015,-33.2443,84.0,64.8321,0,0,0
0.0918,0.1516,0.9243,-37.8931,83.9542,74.9771,0,0,0
-0.032,0.1487,0.8601,-33.0534,69.7634,81.5267,0,0,0
0.0125,0.0427,0.9194,-20.9389,56.5496,89.5649,0,0,0
-0.0676,0.0767,0.9209,-8.6718,50.1985,99.6412,0,0,0
-0.0337,0.2061,0.8865,-4.3053,44.5191,105.2443,0,0,0
0.0459,0.2771,0.8699,-2.9618,35.9542,98.3206,0,0,0
-0.0398,0.2737,0.8572,-5.6412,23.0763,89.9389,0,0,0
-0.0186,0.3145,0.8992,-9.3282,16.6718,83.2595,0,0,0
0.0017,0.2544,0.9556,-13.6412,14.9771,79.8244,0,0,0
0.0259,0.2917,0.9763,-15.8092,17.2366,80.313,0,0,0
-0.0356,0.3113,0.9473,-18.0992,16.6183,73.2901,0,0,0
-0.0007,0.2795,0.9695,-20.5191,15.5573,67.5725,0,0,0
-0.012,0.2734,0.968,-20.7023,13.6794,59.8779,0,0,0
-0.0144,0.249,0.9563,-17.3588,10.3664,51.6641,0,0,0
0.0007,0.1912,0.9824,-12.3435,7.9542,47.2672,0,0,0
0.0083,0.2058,0.9924,-6.771,6.4198,43.7176,0,0,0
0.0229,0.2092,1.0129,-3.9389,6.3282,41.4427,0,0,0
0.0242,0.2131,1.0166,-2.8015,8.313,39.3206,0,0,0
0.0403,0.2019,1.0168,-4.0992,11.7023,36.7481,0,0,0
0.0317,0.2026,1.0122,-5.542,12.3588,34.1679,0,0,0
0.0125,0.1946,0.998,-5.0229,10.3511,31.5573,0,0,0
0.0369,0.1687,1.0154,-4.1985,9.5725,30.7023,0,0,0
0.0066,0.1714,1.0002,-0.8931,9.4122,29.5344,0,0,0
0.0278,0.1799,0.9961,0.5115,7.7176,27.5649,0,0,0
0.0205,0.1875,0.9807,-0.1069,6.6107,26.3664,0,0,0
0.0068,0.1987,0.9546,-0.8626,4.4656,25.6031,0,0,0
-0.0051,0.2197,0.9282,-2.1374,-0.0763,24.6031,0,0,0
-0.0203,0.2266,0.9143,-2.542,-5.5496,22.1756,0,0,0
-0.0195,0.2271,0.9099,-1.8779,-12.1756,21.2214,0,0,0
-0.0212,0.2407,0.916,1.8779,-18.9389,18.7099,0,0,0
-0.0059,0.2444,0.9224,6.1756,-23.3206,15.9618,0,0,0
-0.0178,0.2747,0.9495,8.9237,-27.7481,14.374,0,0,0
-0.0037,0.3157,0.9646,12.9542,-31.2443,10.1527,0,0,0
-0.0088,0.3167,0.9731,16.7557,-37.3817,3.5954,0,0,0
0.0259,0.3013,1.0215,19.7786,-40.084,2.1374,0,0,0
0.0344,0.3098,1.0247,21.5725,-39.687,2.1756,0,0,0
0.071,0.3596,1.0522,22.6183,-35.8626,0.374,0,0,0
0.2427,0.4902,1.2227,12.3969,-15.6031,-9.5878,0,0,0
-0.147,0.2368,0.9331,13.1756,-22.9237,-9.626,0,0,0
0.0911,0.4119,1.071,5.8321,-17.3282,-13.2824,0,0,0
0.0544,0.3132,1.051,4.1985,-19.5191,-15.0992,0,0,0
0.0422,0.3096,1.0198,6.6947,-19.8626,-19.3053,0,0,0
0.0576,0.2969,1.0032,10.542,-26.2595,-21.9084,0,0,0
0.0232,0.2563,0.9592,12.8702,-27.4046,-26.4809,0,0,0
0.0647,0.2207,0.9861,21.2137,-40.9924,-22.0992,0,0,0
0.0107,0.2349,0.8264,28.8473,-44.4351,-23.7863,0,0,0
0.0842,0.1357,0.8528,38.5878,-62.4122,-13.9466,0,0,0
0.1279,0.2651,0.9419,34.2137,-62.5725,-13.7481,0,0,0
0.1841,0.3201,1.0088,27.3053,-50.8015,-14.5573,0,0,0
0.1169,0.2996,1.0112,21.4122,-45.8931,-14.145,0,0,0
0.1753,0.3323,1.0271,13.374,-38.6031,-12.5954,0,0,0
0.1553,0.2954,0.9924,5.1908,-32.7481,-12.3664,0,0,0
0.1404,0.2544,0.9695,2.8015,-31.0,-11.7481,0,1,0
0.1472,0.2393,0.9805,4.5115,-29.4962,-8.5191,0,1,0
0.1545,0.2607,0.9995,7.0382,-27.3969,-6.1069,0,1,0
0.1648,0.271,1.0051,7.3359,-26.4733,-6.2137,0,1,0
0.1533,0.2993,0.9985,6.5038,-25.6718,-6.1832,0,1,0
0.1619,0.3076,1.0168,4.4122,-24.7328,-6.916,0,1,0
0.147,0.2546,0.9988,0.7252,-19.7176,-7.0534,0,1,0
0.1904,0.2546,1.0054,2.687,-19.8473,-4.0534,0,1,0
0.1768,0.2922,0.9998,1.6947,-14.4504,-4.5878,0,1,0
0.1602,0.2754,0.9905,1.0687,-14.542,-3.1679,0,1,0
0.176,0.2908,0.9797,1.4427,-15.8015,-4.771,0,1,0
0.1663,0.2832,0.9866,0.6336,-17.7176,-6.0992,0,1,0
0.1855,0.2793,0.9819,1.8397,-17.4885,-5.5802,0,1,0
0.1948,0.2793,0.9805,5.5649,-16.313,-6.6107,0,1,0
0.2078,0.2727,0.9946,7.7405,-14.9542,-7.4809,0,1,0
0.1809,0.3203,0.9824,9.9924,-13.9084,-7.6565,0,1,0
0.2104,0.3423,0.9866,12.687,-12.916,-11.3817,0,1,0
0.2153,0.3596,0.9963,13.7634,-11.6565,-15.2595,0,1,0
0.2375,0.3564,1.009,18.1679,-8.2901,-20.1145,0,1,0
0.2361,0.3706,1.0088,23.313,-2.2214,-25.1298,0,1,0
0.2354,0.385,1.0159,28.7328,4.2061,-31.2061,0,1,0
0.2197,0.4099,1.0066,33.4351,7.8931,-36.0153,0,1,0
0.2437,0.448,1.0254,34.6031,15.9847,-43.1298,0,1,0
0.2114,0.4666,1.0222,31.4885,24.9771,-53.4122,0,1,0
0.2004,0.4788,1.0081,29.4275,29.6412,-63.6489,0,1,0
0.2117,0.4407,1.0093,27.3969,34.7405,-69.1145,0,1,0
0.2009,0.4712,0.9868,23.916,39.9924,-72.7939,0,1,0
0.168,0.447,0.9697,19.7099,42.5267,-74.0687,0,1,0
0.1479,0.4285,0.9373,14.4198,42.7481,-72.7252,0,0,0
0.1277,0.3567,0.9119,8.9924,38.4733,-70.6565,0,0,0
0.0908,0.3904,0.8848,2.9389,33.5344,-66.5649,0,0,0
0.0962,0.3662,0.8965,-1.6718,28.0,-64.6565,0,0,0
0.0723,0.3076,0.8906,-4.2901,22.3359,-58.1908,0,0,0
0.0415,0.3203,0.8752,-5.5115,14.771,-51.5496,0,0,0
0.0425,0.2971,0.8767,-5.2061,7.5573,-46.2824,0,0,0
0.033,0.3081,0.8904,-4.2214,1.458,-40.9695,0,0,0
0.0286,0.2991,0.9058,-2.2672,-2.9389,-35.8321,0,0,0
0.0474,0.3088,0.9304,-1.2901,-4.542,-30.4809,0,0,0
0.0391,0.3271,0.9446,-1.0076,-4.3359,-26.1832,0,0,0
0.0508,0.3315,0.9519,-0.8779,-2.7176,-23.7252,0,0,0
0.0464,0.3364,0.9541,-1.6412,-0.7099,-21.4885,0,0,0
0.0505,0.3396,0.969,-1.458,1.6489,-20.0,0,0,0
0.0488,0.3418,0.9734,-2.2519,3.0153,-18.458,0,0,0
0.054,0.3325,0.98,-1.6183,4.5954,-17.2595,0,0,0
0.0601,0.3267,0.9841,-0.1221,6.3282,-15.7863,0,0,0
0.0364,0.3286,0.979,0.5344,6.374,-12.3053,0,0,0
0.0432,0.3252,0.9922,1.1527,7.8015,-8.9008,0,0,0
0.0413,0.3428,0.9966,0.0916,10.5267,-7.3359,0,0,0
0.0322,0.3494,0.9951,-2.4504,13.687,-6.5802,0,0,0
0.0239,0.3643,0.9773,-7.1145,15.7634,-4.7099,0,0,0
0.0317,0.3462,0.9861,-9.7252,17.1908,-4.7939,0,0,0
-0.0012,0.3127,0.9702,-10.3664,17.7252,-0.7328,0,0,0
0.0308,0.3142,0.9956,-10.145,19.8779,2.9084,0,0,0
0.032,0.324,0.999,-12.8015,22.916,6.4656,0,0,0
-0.0303,0.3423,0.9661,-18.0611,27.3893,8.626,0,0,0
-0.011,0.3462,0.9778,-23.4275,28.5114,10.4504,0,0,0
0.0139,0.3372,0.9756,-27.9695,30.9008,13.9771,0,0,0
0.0068,0.2837,0.9883,-29.3206,31.3969,19.6183,0,0,0
-0.019,0.2061,0.9976,-29.0,34.6489,27.8092,0,0,0
0.0093,0.3303,0.9958,-30.1069,35.9847,34.2595,0,0,0
-0.0054,0.3994,0.959,-34.9847,37.3282,35.8092,0,0,0
-0.0354,0.4058,0.9375,-40.229,33.1679,31.0305,0,0,0
-0.0359,0.3271,0.9509,-43.542,29.229,27.771,0,0,0
-0.0518,0.281,0.9641,-40.9847,24.6031,28.2366,0,0,0
-0.0503,0.2856,0.968,-34.4656,22.5191,29.5114,0,0,0
-0.0417,0.3181,0.9644,-28.0611,20.8779,29.2137,0,0,0
-0.0427,0.3232,0.9534,-22.2901,17.9389,26.1908,0,0,0
-0.0156,0.2996,0.9849,-19.9389,17.2672,26.5344,0,0,0
-0.064,0.3462,0.9536,-17.3817,13.0687,17.1527,0,0,0
-0.0042,0.3264,0.9763,-11.7786,11.4275,12.145,0,0,0
-0.0317,0.3301,0.981,-8.0076,13.0687,12.3969,0,0,0
-0.0527,0.3401,0.9478,-6.9771,13.1527,13.0305,0,0,0
-0.0469,0.3533,0.938,-8.2137,9.8092,13.0458,0,0,0
-0.0408,0.3611,0.9192,-11.6794,6.4809,12.1221,0,0,0
-0.0454,0.3469,0.9326,-13.2901,3.3511,10.8244,0,0,0
-0.1021,0.2214,0.9333,-13.2214,0.7786,8.3053,0,0,0
-0.0476,0.2585,0.9441,-13.8244,-3.6947,9.3359,0,0,0
-0.0405,0.2964,0.9487,-10.9924,-5.2824,8.6718,0,0,0
-0.0452,0.2986,0.9434,-8.2901,-7.6031,8.2901,0,0,0
-0.041,0.2971,0.9495,-6.4809,-9.8168,7.8855,0,0,0
-0.0347,0.3142,0.9761,-5.458,-11.0763,6.5191,0,0,0
-0.0237,0.2869,0.9924,-3.9924,-10.4809,6.542,0,0,0
-0.0181,0.2856,0.9995,-1.2901,-9.3511,7.9008,0,0,0
-0.0134,0.3083,0.9932,-1.7328,-8.3435,8.5954,0,0,0
-0.0181,0.3154,0.9907,-3.2901,-8.2443,8.8015,0,0,0
-0.0156,0.3096,0.9966,-5.1985,-8.5725,8.2214,0,0,0
-0.0208,0.3108,0.9958,-6.1298,-9.0,8.0,0,0,0
-0.0232,0.3174,1.0024,-5.771,-9.7328,6.3893,0,0,0
-0.0049,0.3083,1.0105,-6.2672,-10.1756,4.8244,0,0,0
-0.0164,0.3042,1.0059,-5.8473,-10.313,5.4809,0,0,0
0.0005,0.3,1.0034,-6.916,-10.4962,6.1603,0,0,0
-0.0129,0.3037,0.9924,-8.1221,-11.6412,7.3359,0,0,0
-0.0083,0.3013,0.9976,-9.4885,-12.7405,7.6718,0,0,0
0.0098,0.2715,0.9961,-11.4656,-12.9695,7.8321,0,0,0
0.0063,0.272,0.9878,-10.9924,-12.5191,8.7939,0,0,0
0.0032,0.2671,0.9888,-11.5496,-11.5038,10.3435,0,0,0
0.001,0.26,0.9797,-12.084,-12.145,10.6794,0,0,0
0.0029,0.2698,0.9734,-13.1221,-12.1298,10.8168,0,0,0
0.0022,0.25,0.991,-13.145,-11.9466,11.0687,0,0,0
0.0278,0.2297,1.0166,-11.2595,-9.4122,10.7252,0,0,0
0.0344,0.2158,1.0369,-8.626,-4.5573,11.855,0,0,0
0.0264,0.2505,1.0312,-6.7023,0.3206,11.3969,0,0,0
0.0229,0.2417,1.0249,-5.916,3.7099,10.6718,0,0,0
0.041,0.2402,1.051,-4.5725,7.3053,10.2595,0,0,0
0.0361,0.2378,1.0432,-4.6489,12.5878,9.7023,0,0,0
0.0247,0.22,1.0488,-4.3282,16.1679,10.8702,0,0,0
0.0022,0.2407,1.0225,-2.5573,18.8092,12.6336,0,0,0
0.0085,0.249,1.0195,-0.9847,19.0763,11.8015,0,0,0
-0.0178,0.26,1.0068,-0.5344,16.8779,9.7863,0,0,0
-0.0095,0.2671,1.0283,-0.2519,16.0229,8.0611,0,0,0
-0.0022,0.2639,1.041,1.2443,18.0992,6.6794,0,0,0
-0.0044,0.2576,1.0437,1.2366,20.7023,7.7557,0,0,0
-0.0244,0.2673,1.0156,0.3817,22.6489,8.6031,0,0,0
-0.0181,0.2876,1.0,-0.8931,21.6565,10.0153,0,0,0
-0.0229,0.2981,0.9927,-2.5038,21.3588,9.5725,0,0,0
-0.0308,0.2783,0.9753,-6.0153,20.1603,9.7786,0,0,0
-0.0403,0.2883,0.9849,-9.1832,18.0992,10.3969,0,0,0
-0.0266,0.356,0.9788,-13.0992,16.4504,11.9771,0,0,0
-0.0464,0.3337,0.9568,-13.1908,14.8168,10.2672,0,0,0
-0.0391,0.2598,0.9636,-11.4962,13.313,9.8702,0,0,0
-0.0466,0.2654,0.9609,-9.4809,11.6565,9.2366,0,0,0
-0.0457,0.2593,0.9734,-7.2214,9.6412,7.7023,0,0,0
-0.0469,0.271,0.9724,-4.916,7.9313,6.3206,0,0,0
-0.0459,0.2676,0.9749,-2.4427,5.7023,5.2977,0,0,0
-0.0415,0.269,0.9851,-0.7939,3.8779,4.6947,0,0,0
-0.0459,0.2673,0.9858,-0.1756,3.2366,4.5191,0,0,0
-0.0264,0.2827,0.9966,-0.771,3.1756,4.6641,0,0,0
-0.0305,0.2935,0.9922,-1.9389,4.9389,2.7786,0,0,0
-0.04,0.293,0.9836,-3.0305,5.1145,0.6107,0,0,0
-0.04,0.2708,0.968,-3.3435,4.3511,-0.458,0,0,0
-0.0437,0.2566,0.9753,-1.5115,3.6183,0.1221,0,0,0
-0.0396,0.2498,0.9766,0.0763,3.2366,0.374,0,0,0
-0.0422,0.2734,0.9661,-0.1527,2.3511,0.0153,0,0,0
-0.0459,0.2749,0.9685,-1.542,2.0916,-1.0229,0,0,0
-0.0466,0.2629,0.959,-1.3817,0.6947,-1.4351,0,0,0
-0.0439,0.2568,0.9658,-1.0992,-0.1756,-2.1603,0,0,0
-0.0427,0.2415,0.9575,-0.0458,-1.6565,-1.4733,0,0,0
-0.0476,0.2522,0.9595,1.2443,-4.1298,0.3282,0,0,0
-0.0332,0.2615,0.9673,0.6947,-5.3435,0.6489,0,0,0
-0.0325,0.2637,0.9736,0.0458,-6.2443,0.1069,0,0,0
-0.0293,0.2668,0.9783,-1.0,-6.8321,-0.2366,0,0,0
-0.0239,0.2532,0.9792,-1.9084,-6.542,-1.1908,0,0,0
-0.0264,0.2505,0.9844,-1.1527,-5.4122,-1.4275,0,0,0
-0.0308,0.2605,0.991,-1.687,-4.6489,-1.3969,0,0,0
-0.0303,0.26,0.9844,-3.0382,-4.1832,-1.8397,0,0,0
-0.0349,0.2368,0.9888,-2.8473,-5.145,-0.7023,0,0,0
-0.0327,0.2427,1.0027,-1.3435,-5.3359,-0.2061,0,0,0
-0.0344,0.2458,1.0015,-1.0,-5.2748,0.1603,0,0,0
-0.0378,0.2446,0.9985,-0.5725,-5.6565,0.1221,0,0,0
-0.0325,0.2449,1.0034,-0.5344,-5.7863,0.8473,0,0,0
-0.031,0.2578,1.0127,-1.3359,-4.9771,1.0305,0,0,0
-0.0208,0.2502,1.0146,-1.5954,-3.2137,1.458,0,0,0
-0.0247,0.2588,1.0247,-2.0534,-1.8779,1.8321,0,0,0
-0.03,0.26,1.0176,-2.3893,-0.5954,2.0458,0,0,0
-0.0283,0.2539,1.0103,-2.5878,-0.3511,1.7405,0,0,0
-0.0461,0.2563,1.0032,-2.0229,-0.8779,1.7328,0,0,0
-0.0405,0.2485,1.0,-1.9008,-2.5802,2.3588,0,0,0
-0.0405,0.2493,0.9985,-0.4275,-3.4809,3.6412,0,0,0
-0.0381,0.2644,0.9985,0.6718,-2.9542,2.626,0,0,0
-0.0273,0.2683,1.0012,0.7252,-1.7481,2.5649,0,0,0
-0.0337,0.2705,1.0022,0.8015,-0.8855,2.4046,0,0,0
-0.0342,0.2615,1.0037,1.9466,-0.5191,2.3969,0,0,0
-0.0283,0.2681,1.0183,2.4198,0.6794,3.0305,0,0,0
-0.0374,0.2678,1.0193,4.1145,1.4351,3.0687,0,0,0
-0.0339,0.2563,1.0161,6.6183,2.458,3.2519,0,0,0
-0.0432,0.259,1.0127,8.374,1.2824,5.3969,0,0,0
0.0652,0.2991,1.0764,11.4275,6.9618,4.0153,0,0,0
-0.0457,0.2361,1.0151,14.626,10.4733,3.0153,0,0,0
-0.0142,0.3433,1.0024,9.7328,9.6489,2.5725,0,0,0
-0.0393,0.3015,1.01,6.4122,10.7786,0.5191,0,0,0
-0.0371,0.2776,1.0203,5.2366,11.7481,0.3817,0,0,0
-0.0476,0.2793,1.01,6.4122,12.4962,-0.229,1,0,0
-0.0427,0.2842,1.0059,6.3588,12.2443,-0.3053,1,0,0
-0.0369,0.2986,1.0176,7.3053,12.6794,-1.5573,1,0,0
-0.0356,0.2803,1.0266,8.2443,14.3435,-2.3282,1,0,0
-0.042,0.2842,1.0203,10.8397,16.0534,-1.8626,1,0,0
-0.0347,0.2974,1.0037,11.5802,17.8702,-2.7405,1,0,0
-0.0488,0.3174,0.9951,9.7176,18.4198,-3.9008,1,0,0
-0.0713,0.3564,0.9727,3.4962,17.0763,-4.8244,1,0,0
-0.0588,0.3257,0.9678,-3.0229,14.687,-5.5573,1,0,0
-0.1133,0.1045,0.9966,-10.771,14.3817,-8.1908,1,0,0
-0.0754,0.2854,0.9536,-13.084,12.145,-6.1603,1,0,0
-0.064,0.3218,0.9578,-17.6718,9.0,-8.0153,1,0,0
-0.053,0.3008,0.9604,-19.1985,10.6718,-13.5344,1,0,0
-0.1248,0.1995,0.9246,-14.6718,6.084,-14.8092,1,0,0
-0.0894,0.1948,0.95,-10.9771,0.4504,-8.8626,1,0,0
-0.0872,0.2241,0.9631,-6.145,-1.7481,-4.1603,1,0,0
-0.0791,0.1851,0.9602,-0.4046,-3.7786,1.084,1,0,0
-0.0996,0.2371,0.9473,4.1756,-7.5573,5.6947,1,0,0
-0.0769,0.2705,0.9568,3.1145,-11.0076,7.687,0,0,0
-0.0688,0.2849,0.9536,0.4351,-10.9008,6.5496,0,0,0
-0.0793,0.2654,0.939,-1.8168,-14.3359,7.1985,0,0,0
-0.0703,0.2644,0.9519,-3.0,-15.4427,8.0534,0,0,0
-0.0583,0.2715,0.9854,-4.1069,-15.4198,7.0,0,0,0
-0.0503,0.2534,0.9907,-2.9466,-14.2901,7.5573,0,0,0
-0.0378,0.2878,1.0256,-2.3511,-12.0153,7.9924,0,0,0
-0.0227,0.2949,1.0276,-2.2214,-7.4122,6.6107,0,0,0
-0.05,0.2825,1.0093,-1.8779,-3.9618,5.6183,0,0,0
-0.0444,0.2932,1.012,-0.5038,-2.7786,4.6641,0,0,0
-0.0435,0.3018,1.0059,-0.9084,-0.0916,3.1374,0,0,0
-0.051,0.2917,0.9941,-1.374,0.7481,3.2595,0,0,0
-0.0454,0.2886,0.9851,-2.0153,0.4504,3.2443,0,0,0
-0.0496,0.29,0.9861,-2.6183,0.626,2.1221,0,0,0
-0.0583,0.2854,0.9922,-2.7176,0.0534,2.0076,0,0,0
-0.0527,0.2795,0.99,-2.2595,0.6641,1.3053,0,0,0
-0.0574,0.2727,0.9902,-0.6641,0.8855,1.5573,0,0,0
-0.0496,0.2915,0.9885,0.145,1.084,1.0763,0,0,0
-0.0442,0.2585,0.9893,1.0153,1.5267,0.8397,0,0,0
-0.0593,0.2732,0.9897,2.8321,0.6794,1.9618,1,0,0
-0.0603,0.2751,0.989,3.0382,-0.0229,2.7863,1,0,0
-0.0583,0.2776,0.9846,3.374,-1.4504,3.8779,1,0,0
-0.0481,0.303,1.0056,1.8473,-0.7252,3.5649,1,0,0
-0.0542,0.2937,1.0032,0.2977,0.4122,3.1145,1,0,0
-0.0552,0.2893,1.0103,-0.6718,1.1603,3.0916,1,0,0
-0.0513,0.3005,1.0173,-1.6718,2.0763,2.7557,1,0,0
-0.054,0.2839,1.0166,-3.1527,3.5115,1.5725,1,0,0
-0.0579,0.2649,1.0317,-2.2595,4.916,2.2137,1,0,0
-0.0522,0.2607,1.0305,-0.6565,6.6565,2.5038,1,0,0
-0.0486,0.2847,1.0107,-1.0,8.687,2.1221,1,0,0
-0.0566,0.2764,0.9956,-1.4351,9.0534,2.374,1,0,0
-0.0557,0.2771,0.999,-2.374,9.1298,3.0382,1,0,0
-0.051,0.272,1.0027,-2.5115,9.7786,3.4122,1,0,0
-0.0513,0.2871,1.0037,-4.0229,10.7252,3.3282,1,0,0
-0.0481,0.2717,1.0066,-5.6641,12.4809,2.3893,1,0,0
-0.061,0.2805,1.0015,-5.0076,13.458,2.8931,1,0,0
-0.0637,0.2715,0.9941,-4.1145,13.1985,2.9542,1,0,0
-0.0674,0.2725,0.9824,-2.7328,12.8626,2.8931,1,0,0
-0.0691,0.28,0.979,-1.6107,12.5649,2.6794,1,0,0
-0.0752,0.2791,0.9673,-1.8092,11.458,2.1069,1,0,0
-0.0842,0.2808,0.9641,-1.3282,9.8779,2.229,1,0,0
-0.0781,0.2764,0.95,-1.5038,7.9313,3.3206,1,0,0
-0.0808,0.2881,0.9595,-1.6565,6.0229,3.8244,1,0,0
-0.082,0.2981,0.9666,-2.2137,4.4427,3.1527,1,0,0
-0.0789,0.2881,0.9651,-2.4733,2.7023,2.7099,1,0,0
-0.071,0.272,0.9756,-1.9084,2.084,2.9237,1,0,0
-0.0725,0.2817,0.9763,-0.7634,2.1908,3.2519,1,0,0
-0.0681,0.2864,0.9753,-1.7786,2.229,2.5878,1,0,0
-0.0725,0.281,0.9773,-2.7786,2.6031,2.9618,1,0,0
-0.0754,0.2734,0.9766,-2.9313,2.4885,3.4351,1,0,0
-0.0901,0.2654,0.9639,-2.542,1.6641,4.1145,1,0,0
-0.0786,0.2754,0.9822,-2.4504,1.2672,4.9771,1,0,0
-0.0762,0.2698,0.9785,-1.4733,2.2901,5.4427,1,0,0
-0.0754,0.2917,0.9861,-2.1298,3.0611,5.4962,1,0,0
-0.0828,0.2952,0.9761,-4.6031,4.3588,5.2214,1,0,0
-0.0833,0.2842,0.9832,-6.4046,3.7939,5.1908,1,0,0
-0.0811,0.2671,0.9868,-7.3893,3.9618,5.2214,1,0,0
-0.0791,0.2634,0.9907,-6.6107,3.8244,5.4656,1,0,0
-0.0796,0.2681,0.9915,-6.5344,4.2595,6.1603,1,0,0
-0.0803,0.2681,1.0002,-7.3511,4.4122,6.3893,1,0,0
-0.0854,0.27,0.999,-7.7939,6.4885,6.2748,1,0,0
-0.0818,0.2554,0.9963,-8.3588,7.0153,7.5115,1,0,0
-0.085,0.2546,0.9976,-8.6031,7.5496,9.2137,1,0,0
-0.0828,0.2502,0.9956,-8.7176,7.9695,11.3893,1,0,0
-0.0842,0.272,1.0005,-9.6336,8.6031,12.6031,1,0,0
-0.0845,0.2688,1.0093,-11.2061,9.5496,12.6412,1,0,0
-0.083,0.2737,1.0081,-11.7328,10.229,12.0687,1,0,0
-0.0886,0.2651,1.0095,-11.5573,11.2595,11.8626,1,0,0
-0.1016,0.2717,1.0107,-10.0153,11.4351,11.1756,1,0,0
-0.1091,0.2668,0.9941,-7.8321,10.5191,10.4046,1,0,0
-0.1167,0.2793,0.9922,-6.458,8.229,9.6641,1,0,0
-0.1099,0.2651,0.9868,-6.2595,6.9618,8.626,1,0,0
-0.1033,0.2703,0.9846,-6.4809,5.542,7.9466,1,0,0
-0.0979,0.2627,1.0032,-5.7023,5.8931,7.1221,1,0,0
-0.0928,0.2625,1.0078,-5.6183,6.7634,7.0,1,0,0
-0.1052,0.2646,0.9966,-5.4809,7.3817,6.8092,1,0,0
-0.1106,0.2637,0.9819,-5.7863,6.5725,7.2137,1,0,0
-0.1194,0.2625,0.9741,-5.1298,4.6031,7.5573,1,0,0
-0.113,0.2622,0.9714,-4.9008,2.4962,8.1679,1,0,0
-0.1128,0.2573,0.9739,-3.6718,1.2901,7.5725,1,0,0
-0.1194,0.2434,0.9529,-1.9389,-0.6718,7.7252,1,0,0
-0.1316,0.2627,0.9802,0.4427,-3.4198,8.5878,1,0,0
-0.1714,0.261,0.9519,1.084,-10.1985,10.1145,1,0,0
0.0503,0.2346,0.9534,10.3206,-3.9924,4.8244,1,0,0
-0.176,0.3325,0.981,8.626,-1.2595,3.4122,1,0,0
-0.0903,0.2551,0.9385,8.5725,-3.7099,2.916,1,0,0
-0.0706,0.2778,0.9421,7.0458,-6.2443,4.4427,1,0,0
-0.0825,0.2737,0.9368,7.9466,-5.7023,4.3053,1,0,0
-0.0771,0.314,0.9473,5.3588,-6.6565,2.542,1,0,0
-0.0671,0.334,0.9583,1.9542,-7.6183,0.3282,1,0,0
-0.0586,0.3394,0.9797,-3.8473,-6.5267,-1.7863,1,0,0
-0.0388,0.3213,1.0061,-9.1985,-2.2137,-5.084,1,0,0
-0.0659,0.314,0.9958,-13.1603,1.8321,-7.4885,1,0,0
-0.0662,0.2698,1.0056,-15.3053,3.8855,-8.1603,1,0,0
-0.116,0.2676,0.9673,-16.5496,1.4962,-6.0229,1,0,0
-0.0925,0.2463,0.9749,-13.7176,-1.0611,-5.1527,1,0,0
-0.083,0.2605,0.9751,-11.6565,-0.0305,-6.6412,1,0,0
-0.0632,0.2458,0.9788,-7.7863,4.9466,-10.8626,1,0,0
-0.1665,0.1924,0.9529,-3.4122,0.9542,-6.8779,1,0,0
-0.1191,0.2588,1.0044,-4.0153,-4.0153,-1.1985,1,0,0
-0.0837,0.2637,0.9949,-6.1679,-1.3969,-2.0534,1,0,0
-0.126,0.2383,1.0032,-5.3893,-3.0,-0.8244,1,0,0
-0.1128,0.2439,1.0056,-3.626,-4.4885,1.1221,1,0,0
-0.0986,0.2505,1.0229,-1.3282,-5.0534,0.6107,1,0,0
-0.0955,0.2534,1.0178,0.2443,-4.4046,0.2061,1,0,0
-0.093,0.2639,1.0232,1.6336,-3.2977,0.1145,0,0,0
-0.0837,0.2622,1.02,1.6489,-1.6183,-0.7252,0,0,0
-0.0959,0.2617,1.0115,0.6412,-1.0687,-0.5573,0,0,0
-0.0938,0.2595,1.0063,-0.6489,-0.5267,0.7252,0,0,0
-0.0813,0.2656,1.0308,-1.8168,0.6718,1.0382,0,0,0
-0.0913,0.2739,1.0249,-2.0305,3.855,0.5802,0,0,0
-0.0923,0.2632,1.0186,-2.3282,6.1145,-0.4656,0,0,0
-0.0964,0.2542,1.0066,-1.0458,6.9695,-0.9924,0,0,0
-0.1162,0.2632,0.9966,-0.626,5.7863,-1.084,0,0,0
-0.1157,0.2598,0.9802,-1.1374,3.145,-0.3511,0,0,0
-0.1091,0.2432,0.9875,-1.1145,1.6183,0.6489,0,0,0
-0.0984,0.2571,1.0076,-1.1832,2.3359,1.3664,0,0,0
-0.0989,0.2563,1.0073,-1.855,3.7328,1.084,0,0,0
-0.0964,0.2498,0.9939,-2.5115,4.2977,0.9237,0,0,0
-0.1013,0.2512,0.9983,-2.2672,4.9542,1.8015,0,0,0
-0.1033,0.2529,0.9998,-1.2595,5.145,1.5191,0,0,0
-0.1018,0.2446,0.9971,-0.7252,5.3664,1.5649,0,0,0
-0.0977,0.2583,1.0039,0.1908,6.2824,1.7328,0,0,0
-0.1016,0.2507,0.9934,0.0534,7.0687,1.4046,0,0,0
-0.1162,0.2625,0.9824,-1.9924,7.4885,1.6183,0,0,0
-0.1169,0.2397,0.9795,-3.6183,6.4122,2.313,0,0,0
-0.1084,0.2407,0.9858,-4.145,6.2519,3.1069,0,0,0
-0.1121,0.2305,0.989,-3.7328,6.2519,3.855,0,0,0
-0.1108,0.2429,0.9927,-3.7481,6.9466,3.6412,0,0,0
-0.1113,0.2444,0.9929,-5.084,7.1908,5.2137,0,0,0
-0.116,0.2434,0.989,-5.9237,7.1832,5.5344,0,0,0
-0.1191,0.231,0.9907,-6.0534,6.7863,5.8626,0,0,0
-0.1211,0.2258,0.9949,-5.2672,6.084,6.626,0,0,0
-0.116,0.231,1.0085,-3.916,6.9237,7.5496,0,0,0
-0.1118,0.2427,1.0112,-3.1756,8.0076,7.4656,0,0,0
-0.1133,0.2502,1.011,-3.5344,8.8702,6.8244,0,0,0
-0.1194,0.2544,0.9875,-4.3588,9.4885,6.4962,0,0,0
-0.1301,0.2375,0.9851,-5.1069,8.7481,7.4656,0,0,0
-0.1206,0.2434,0.9897,-6.0458,8.4885,8.2214,0,0,0
-0.116,0.2363,1.0024,-6.7405,8.9313,9.1527,0,0,0
-0.1111,0.2539,1.0029,-8.0305,11.458,9.8321,0,0,0
-0.1162,0.2585,0.9934,-10.084,12.4351,10.1985,0,0,0
-0.1204,0.2529,0.9905,-9.8015,13.1908,10.2672,0,0,0
-0.1309,0.2288,0.9919,-8.855,12.4885,10.5115,0,0,0
-0.1357,0.2451,0.9871,-7.542,11.5267,11.1298,0,0,0
-0.1394,0.2532,0.9893,-7.0153,11.1832,10.7634,0,0,0
-0.1323,0.2546,0.988,-7.2901,11.084,10.2824,0,0,0
-0.1433,0.2534,0.9795,-6.7786,11.1374,10.3435,0,0,0
-0.1409,0.2651,0.9712,-6.9542,10.4351,9.3817,0,0,0
-0.1465,0.2598,0.9614,-8.3893,9.4046,8.9237,0,0,0
-0.1318,0.2773,0.9854,-9.1145,6.8855,7.4198,0,0,0
-0.1511,0.248,0.9646,-8.3511,3.2748,7.313,0,0,0
-0.1396,0.2278,0.9751,-6.6412,2.542,7.8702,1,0,0
-0.1333,0.2239,0.9817,-5.0534,2.7557,7.7634,1,0,0
-0.1235,0.228,0.9851,-3.5878,3.2366,8.6565,1,0,0
-0.1399,0.2341,0.9956,-0.9466,2.7252,8.4885,1,0,0
-0.1453,0.2515,0.9917,0.229,2.2137,7.6794,1,0,0
-0.1543,0.2629,0.9731,0.7328,0.771,7.3359,1,0,0
-0.2197,0.2485,0.9561,0.0229,-5.6031,8.4656,1,0,0
-0.1287,0.2295,0.9543,2.4046,-10.3359,11.6412,1,0,0
-0.0242,0.176,1.0027,11.5725,-1.4656,1.7481,1,0,0
-0.1724,0.323,0.9341,1.0229,-1.8626,5.2824,1,0,0
-0.1433,0.2327,0.9272,1.1908,-8.1221,3.542,1,0,0
-0.103,0.259,0.9617,3.5267,-8.3359,3.1603,1,0,0
-0.1304,0.2737,0.9648,3.8855,-9.0305,3.3588,1,0,0
-0.1172,0.3086,0.9695,1.9695,-10.0687,1.3053,1,0,0
-0.1086,0.3049,0.9836,-1.6489,-11.145,-0.2672,1,0,0
-0.0784,0.3074,1.0193,-4.229,-8.7252,-2.7863,1,0,0
-0.0881,0.2712,1.0186,-5.5649,-4.145,-4.1756,1,0,0
-0.1145,0.2698,1.0037,-5.7863,-1.9847,-4.8931,1,0,0
-0.1221,0.2451,1.0046,-6.1298,-1.687,-4.9771,1,0,0
-0.1211,0.2361,1.0046,-4.7023,-1.1756,-4.8855,1,0,0
-0.1135,0.2517,1.01,-4.5038,0.2595,-4.7252,1,0,0
-0.0923,0.2656,1.0298,-6.145,1.8168,-4.1832,1,0,0
-0.1331,0.2244,0.9761,-5.687,2.5725,-4.5267,1,0,0
-0.1575,0.238,0.9961,-6.0611,-0.5954,-3.1756,1,0,0
-0.1382,0.217,0.9912,-5.3511,-2.3282,-1.8321,1,0,0
-0.137,0.2246,1.0024,-3.2748,-3.0687,-0.6718,1,0,0
-0.127,0.2488,1.0066,-2.6183,-2.9466,-0.0992,1,0,0
-0.1279,0.2441,1.0122,-3.2824,-2.6183,0.374,1,0,0
-0.1267,0.2419,1.0195,-3.4733,-2.2214,0.8092,1,0,0
-0.1328,0.2405,1.0193,-3.0458,-1.6718,0.8931,1,0,0
-0.1216,0.2407,1.0222,-2.2519,-0.4885,0.6412,1,0,0
-0.1262,0.2307,1.0203,-1.2748,1.5954,0.542,1,0,0
-0.1309,0.2412,1.0125,-0.7252,2.8168,0.6031,1,0,0
-0.1333,0.2346,0.9983,-0.8779,3.084,0.8779,1,0,0
-0.145,0.2383,0.9934,-1.1527,1.8931,1.2443,1,0,0
-0.1379,0.2522,0.9856,-2.8931,2.1527,0.7252,1,0,0
-0.1372,0.2415,0.9946,-4.1374,1.8931,0.6489,1,0,0
-0.1313,0.2375,1.0012,-3.5267,2.8168,0.6031,1,0,0
-0.1292,0.2319,0.9946,-2.626,3.8321,0.6489,1,0,0
-0.1206,0.2314,1.002,-2.229,4.2901,1.2901,1,0,0
-0.1362,0.2256,0.9922,-1.4504,4.1832,1.6641,1,0,0
-0.1382,0.229,1.0012,-1.2748,4.2824,1.7939,1,0,0
-0.1414,0.2219,0.9868,-0.4962,3.9237,2.084,1,0,0
-0.1313,0.2314,0.9988,-0.6641,3.5725,2.6107,1,0,0
-0.1367,0.2463,0.9963,-1.2748,4.4122,2.7252,1,0,0
-0.1355,0.2415,0.9949,-2.1603,4.4198,2.7405,1,0,0
-0.1475,0.2371,0.9829,-2.9771,3.8779,2.8855,1,0,0
-0.1428,0.2263,0.9932,-3.2977,3.626,3.313,1,0,0
-0.1357,0.228,0.9983,-2.4809,3.771,3.9618,1,0,0
-0.1326,0.2415,1.0042,-1.8855,4.687,3.4504,1,0,0
-0.1365,0.249,1.0078,-1.5649,5.9695,3.2214,1,0,0
-0.1404,0.2515,0.9929,-2.2519,6.5191,3.229,1,0,0
-0.1445,0.2327,0.9932,-2.8397,4.9237,3.2901,1,0,0
-0.1489,0.2234,0.991,-2.1298,4.2977,3.7099,1,0,0
-0.1409,0.2358,1.0017,-2.1603,4.2214,5.3817,1,0,0
-0.1365,0.2449,1.0054,-2.4046,4.5267,4.8702,1,0,0
-0.1367,0.2407,1.0115,-2.542,6.5878,4.3969,1,0,0
-0.1519,0.24,0.991,-2.7023,6.8092,3.855,1,0,0
-0.1453,0.2385,0.9963,-3.3206,6.3893,3.3206,1,0,0
-0.137,0.238,1.0083,-2.5573,7.687,3.7023,1,0,0
-0.1384,0.2402,0.9985,-2.7863,8.4809,4.6794,1,0,0
-0.1477,0.2629,0.9998,-3.145,8.5649,4.9771,1,0,0
-0.1455,0.2559,0.9937,-4.6031,9.5344,4.3282,1,0,0
-0.1526,0.2358,0.979,-4.5802,9.0534,3.3053,1,0,0
-0.1587,0.2395,0.98,-3.7557,7.7863,2.6565,1,0,0
-0.1582,0.2251,0.9739,-3.8321,6.3435,3.2137,1,0,0
-0.156,0.2261,0.979,-2.4427,5.8473,3.8244,1,0,0
-0.1392,0.2266,0.99,-2.1832,6.8397,4.4122,1,0,0
-0.1497,0.2437,0.9902,-2.0611,7.4656,4.771,1,0,0
-0.1548,0.2507,0.9834,-2.6336,8.1145,4.4504,1,0,0
-0.1614,0.252,0.9746,-2.8473,6.9847,4.8015,1,0,0
-0.1672,0.2319,0.9712,-3.4733,5.9771,4.3969,1,0,0
-0.168,0.228,0.9829,-2.3511,4.9695,5.1069,1,0,0
-0.1528,0.2441,0.9841,-2.8168,5.2443,6.0153,1,0,0
-0.1616,0.2495,0.9858,-2.8702,5.7557,6.1221,1,0,0
-0.165,0.2642,0.9832,-3.5954,5.9466,5.7176,1,0,0
-0.1682,0.2593,0.9788,-4.6412,6.3817,5.3969,1,0,0
-0.168,0.239,0.9797,-4.6412,5.374,5.1221,1,0,0
-0.1621,0.2554,0.9871,-5.374,5.9771,4.0229,1,0,0
-0.1726,0.2478,0.9639,-7.7176,6.4351,3.3969,1,0,0
-0.1721,0.2107,0.9749,-10.4351,6.4733,4.1679,1,0,0
-0.1714,0.2078,0.9868,-9.2977,6.7786,5.4885,1,0,0
-0.1577,0.2031,1.0042,-8.1069,8.2824,6.5496,1,0,0
-0.167,0.2302,0.9949,-6.1908,7.3282,6.7634,1,0,0
-0.1951,0.1934,0.9709,-1.7023,5.1679,7.4427,1,0,0
-0.1948,0.2163,0.9639,-3.5725,3.687,6.5573,1,0,0
-0.1821,0.2253,0.968,-1.1908,3.1985,6.916,1,0,0
-0.1558,0.1934,0.9451,3.8473,2.0687,4.084,1,0,0
-0.1943,0.282,0.9866,0.3359,1.1679,6.0687,1,0,0
-0.1658,0.251,0.9807,-0.4351,1.6718,4.7863,1,0,0
-0.156,0.2632,0.9915,-1.0305,2.458,4.8855,1,0,0
-0.1677,0.2483,0.991,-1.4733,3.2977,3.5115,1,0,0
-0.1616,0.2388,0.9878,-0.7481,5.0458,2.8931,1,0,0
-0.1694,0.2439,0.9885,-0.6794,4.7176,3.6489,1,0,0
-0.1829,0.2441,0.9749,-1.8702,3.4427,4.0992,1,0,0
-0.1785,0.2468,0.9817,-2.0763,1.9695,3.855,1,0,0
-0.1738,0.2449,0.9895,-2.1985,0.313,3.1603,1,0,0
-0.1738,0.2468,0.991,-3.0992,0.0229,2.9542,1,0,0
-0.1755,0.2642,0.9902,-3.1069,0.1221,2.0687,1,0,0
-0.1743,0.2554,0.978,-4.1527,0.3817,1.2519,1,0,0
-0.1851,0.2407,0.9666,-4.6107,-0.3435,0.7405,1,0,0
-0.1841,0.2312,0.9792,-3.4733,-1.2214,0.855,1,0,0
-0.1777,0.2278,0.9766,-3.084,-2.1527,1.458,1,0,0
-0.1777,0.2412,0.9849,-2.8473,-2.1221,2.0,1,0,0
-0.1799,0.2439,0.9866,-3.6412,-2.2366,0.626,1,0,0
-0.1465,0.239,0.9937,-4.7939,-3.0382,2.4427,1,0,0
-0.197,0.2312,0.979,-4.4122,-2.6947,2.3817,1,0,0
-0.1641,0.2249,1.0039,-3.4198,-1.7099,2.9237,1,0,0
-0.1809,0.23,0.999,-2.4198,-0.6794,3.084,1,0,0
-0.1843,0.241,0.9954,-2.1374,0.0229,3.5725,1,0,0
-0.1829,0.2339,0.9917,-1.542,0.4275,3.0229,1,0,0
-0.1826,0.239,0.9912,-0.5802,0.0,2.5725,1,0,0
-0.1768,0.2363,1.0066,-0.855,0.1985,2.1985,1,0,0
-0.1772,0.2285,1.0093,-0.6794,1.2214,3.0,1,0,0
-0.1721,0.2261,1.0049,0.2977,2.8092,3.2672,1,0,0
-0.1777,0.2319,1.0024,0.6718,3.6641,3.2366,1,0,0
-0.177,0.2458,0.999,-0.5191,3.7176,2.6412,1,0,0
-0.1797,0.228,0.9993,-0.1908,4.5191,3.0229,1,0,0
-0.1899,0.24,0.9951,0.4046,4.4427,3.3359,1,0,0
-0.1848,0.2385,1.0034,0.6947,4.8321,2.8931,1,0,0
-0.1895,0.2419,1.0,1.4962,5.084,2.9313,1,0,0
-0.1831,0.249,0.9888,1.7939,5.8321,2.4885,1,0,0
-0.188,0.2476,0.9971,1.8626,5.6412,2.0534,1,0,0
-0.1895,0.2407,0.9907,1.8702,5.1679,2.0992,1,0,0
-0.1365,0.2498,1.021,1.5115,8.6565,2.7252,1,0,0
-0.2065,0.2297,0.9849,1.1756,6.3206,2.2672,1,0,0
-0.209,0.2324,0.9941,0.2061,8.2519,2.7176,1,0,0
-0.2051,0.2126,0.9741,0.0,7.7405,2.9924,1,0,0
-0.187,0.2283,0.9937,-2.0229,7.4351,3.2901,1,0,0
-0.199,0.2258,0.979,-0.6336,6.0153,3.5115,1,0,0
-0.2002,0.2209,0.98,1.0687,4.5878,4.1298,1,0,0
-0.1885,0.2354,0.9919,2.8092,4.7557,4.7099,1,0,0
-0.1665,0.2625,0.9949,1.458,6.8702,4.3664,1,0,0
-0.1877,0.2617,0.9661,-0.9389,8.8015,3.8321,1,0,0
-0.1838,0.2615,0.9778,-3.0458,9.1603,3.0916,1,0,0
-0.2131,0.2324,0.9541,-1.4809,5.1221,4.1069,1,0,0
-0.2056,0.239,0.9634,-0.9313,3.9542,4.6489,1,0,0
-0.1973,0.2476,0.979,-0.1679,3.1145,5.0229,1,0,0
-0.1863,0.2563,0.9744,-0.4427,3.4275,5.7405,1,0,0
-0.186,0.2534,0.9697,-0.9389,4.3359,5.1221,1,0,0
-0.1907,0.2703,0.9651,-1.916,4.2977,3.9542,1,0,0
-0.1965,0.2673,0.9636,-3.4885,4.1374,2.8779,1,0,0
-0.2034,0.2539,0.9604,-3.5267,3.7405,2.1298,1,0,0
-0.2061,0.2437,0.9626,-1.6794,2.1298,3.0763,1,0,0
-0.2,0.2629,0.9683,-0.229,1.7557,3.2977,1,0,0
-0.1895,0.2456,0.9487,-0.9008,0.9695,2.5649,1,0,0
-0.1958,0.2412,0.9536,-1.3282,-0.5725,4.0382,1,0,0
-0.1904,0.25,0.9563,-2.0763,-1.458,3.6183,1,0,0
-0.1873,0.2546,0.9607,-2.7099,-1.3053,2.3817,1,0,0
-0.1914,0.26,0.9775,-3.5344,-0.5802,1.8626,1,0,0
-0.1838,0.2307,0.9678,-2.7023,0.145,4.0763,1,0,0
-0.1875,0.2444,0.9517,-1.3435,-0.1832,3.6565,1,0,0
-0.1917,0.2437,0.9543,-0.7786,-0.3206,3.1527,1,0,0
-0.1855,0.2273,0.9631,-0.3282,0.0687,2.4046,1,0,0
-0.1851,0.2349,0.9563,0.4046,-1.2519,3.8168,1,0,0
-0.1875,0.2407,0.9604,1.1221,-0.5802,3.2595,1,0,0
-0.1943,0.2654,0.9565,-0.2137,-0.6565,1.9466,1,0,0
-0.197,0.2366,0.9546,-2.0458,-1.7863,2.3282,1,0,0
-0.1965,0.2493,0.9771,-2.4733,-2.4351,2.1374,1,0,0
-0.196,0.2595,0.9832,-3.1145,-2.1374,2.0382,1,0,0
-0.199,0.2437,0.9846,-3.1832,-1.626,1.9466,1,0,0
-0.2058,0.2375,0.9941,-1.5649,-1.7328,5.3282,1,0,0
-0.2219,0.2336,0.9998,1.1374,-1.1221,8.6565,1,0,0
-0.1929,0.2725,0.9927,0.6947,-0.313,6.3206,1,0,0
-0.2004,0.2681,0.9949,-1.0382,0.3435,4.2214,1,0,0
-0.2029,0.2573,0.9939,-0.6794,0.5573,3.4046,1,0,0
-0.1963,0.261,0.9854,-0.2061,0.9695,2.0611,1,0,0
-0.197,0.2559,0.9812,0.626,2.3893,2.2443,1,0,0
-0.1926,0.2915,0.9949,-2.0076,3.313,0.4427,1,0,0
-0.2041,0.272,0.9834,-2.542,3.2901,-0.3282,1,0,0
-0.2017,0.2549,0.9878,-3.458,3.9695,-1.1069,1,0,0
-0.2097,0.2483,0.9758,-3.3282,2.6641,0.3664,1,0,0
-0.1819,0.249,0.9866,-3.6565,2.6031,1.9618,1,0,0
-0.197,0.2493,0.9792,-2.8244,1.9847,2.6107,1,0,0
-0.1907,0.2678,0.9722,-3.3435,2.1374,2.2977,1,0,0
-0.1892,0.2649,0.9678,-5.0992,1.3359,1.687,1,0,0
-0.1887,0.2351,0.9705,-3.4351,0.7863,1.8015,1,0,0
-0.1821,0.2419,0.968,-1.2977,1.1069,1.3282,1,0,0
-0.1809,0.2524,0.9651,-0.9313,1.1603,0.8626,1,0,0
-0.1807,0.2642,0.9646,-1.5954,1.6565,-0.2443,1,0,0
-0.1829,0.2588,0.9673,-1.9847,1.6794,-0.6565,1,0,0
-0.1968,0.2439,0.9592,-1.5115,1.2672,-0.5115,1,0,0
-0.2046,0.2451,0.9507,-0.687,0.5954,-0.4351,1,0,0
-0.1968,0.2478,0.9553,-0.5267,-1.0916,-0.1756,1,0,0
-0.1892,0.2578,0.9651,-0.9237,-0.4275,0.0763,1,0,0
-0.1963,0.2607,0.9661,-1.5191,-0.0611,0.4656,1,0,0
-0.2058,0.2456,0.9604,-1.313,-0.8473,0.5038,1,0,0
-0.2075,0.252,0.9729,-0.458,-1.5573,1.4656,1,0,0
-0.2021,0.2551,0.9524,-0.3664,-1.4733,1.1985,1,0,0
-0.2048,0.2622,0.9705,-0.626,-1.5267,0.3817,1,0,0
-0.2039,0.2634,0.9836,-1.7863,-1.0916,-0.3206,1,0,0
-0.2048,0.2603,0.9888,-1.8626,-0.374,-0.4351,1,0,0
-0.2073,0.262,0.9836,-2.6031,0.3053,-0.8931,1,0,0
-0.2195,0.2415,0.9883,-3.6031,0.1145,-0.6489,1,0,0
-0.2192,0.23,0.9832,-3.5115,-0.0458,-0.0687,1,0,0
-0.2148,0.2334,0.9861,-3.1756,0.0916,0.1832,1,0,0
-0.209,0.2222,0.9944,-2.5344,0.313,0.8779,1,0,0
-0.2043,0.2219,0.9873,-1.9237,1.0763,1.6794,1,0,0
-0.2048,0.2249,0.9963,-0.2824,1.313,2.3282,1,0,0
-0.2061,0.2307,0.9966,0.5573,1.8168,3.145,1,0,0
-0.2095,0.2583,0.9858,-0.4733,1.9466,3.2519,1,0,0
-0.2148,0.2537,0.9895,-2.1069,1.7176,2.6107,1,0,0
-0.2122,0.2488,0.9873,-3.8931,1.4809,3.3511,1,0,0
-0.2104,0.2458,0.9829,-4.5115,1.3511,4.0687,1,0,0
-0.2068,0.2468,1.0002,-3.9847,2.3664,4.0153,1,0,0
-0.1992,0.2544,0.9924,-3.7786,3.9618,4.2901,1,0,0
-0.2109,0.2598,0.9827,-3.8321,4.6107,3.5649,1,0,0
-0.2136,0.2529,0.9749,-3.626,4.084,3.2137,1,0,0
-0.1841,0.25,0.9834,-3.0763,4.4275,3.3588,1,0,0
-0.2368,0.2439,0.9746,-1.3817,2.8321,3.3969,1,0,0
-0.1853,0.2598,0.9961,-1.8244,4.9695,3.6107,1,0,0
-0.2222,0.2524,0.9941,-0.916,5.8779,3.7557,1,0,0
-0.1975,0.2751,0.9934,-1.8321,7.6641,3.0305,1,0,0
-0.2402,0.2625,0.9697,-2.2901,7.2366,2.5954,1,0,0
-0.2161,0.2573,0.9885,-3.6107,6.5267,2.5802,1,0,0
-0.2195,0.2397,0.9932,-2.3893,6.3282,3.542,1,0,0
-0.2156,0.2495,0.9893,-1.3664,6.4275,3.9847,1,0,0
-0.2146,0.2566,0.9905,-0.9542,7.9695,3.9313,1,0,0
-0.2217,0.2671,0.967,-1.2519,7.6183,3.7099,1,0,0
-0.2234,0.2605,0.9622,-2.0305,7.5573,2.6641,1,0,0
-0.2126,0.2585,0.9565,-2.2824,5.1908,2.3893,1,0,0
-0.2195,0.2393,0.9558,-2.0305,4.2824,2.542,1,0,0
-0.2236,0.2468,0.9712,-0.313,4.0458,3.3359,1,0,0
-0.2061,0.2517,0.9727,-0.0687,5.2519,3.3969,1,0,0
-0.2205,0.2622,0.9768,-0.8244,6.9771,3.3206,1,0,0
-0.2336,0.2561,0.9612,-0.7023,6.1145,3.4122,1,0,0
-0.23,0.2546,0.9558,-1.1985,5.4733,4.0,1,0,0
-0.2371,0.2488,0.9626,-1.2672,4.2672,4.145,1,0,0
-0.2307,0.2522,0.9736,-1.626,4.4809,3.9924,1,0,0
-0.2368,0.2466,0.9734,-1.2519,4.5649,4.1832,1,0,0
-0.2405,0.2471,0.9678,-1.5878,4.6718,4.7405,1,0,0
-0.2451,0.26,0.9736,-0.7405,4.0916,4.8321,1,0,0
-0.2432,0.2559,0.9758,-0.2595,3.1908,4.8321,1,0,0
-0.2373,0.2515,0.9768,-0.626,3.1603,4.8855,1,0,0
-0.2422,0.2471,0.9883,-0.8855,3.2214,5.1374,1,0,0
-0.2349,0.2463,0.9773,-1.5802,4.7176,5.2748,1,0,0
-0.2322,0.2546,0.9714,-3.3053,6.2443,5.4122,1,0,0
-0.2529,0.2332,0.9644,-3.8473,5.9313,5.9542,1,0,0
-0.2522,0.2268,0.9553,-3.1603,4.084,6.6031,1,0,0
-0.2468,0.2229,0.958,-1.7863,3.1069,7.2137,1,0,0
-0.2476,0.2283,0.9741,-0.7786,3.084,7.0,1,0,0
-0.239,0.2329,0.979,-0.5802,3.9695,7.458,1,0,0
-0.2358,0.2373,0.9758,-0.8397,4.8702,8.0229,1,0,0
-0.2395,0.2402,0.9641,-2.4275,4.6947,8.8626,1,0,0
-0.2371,0.2424,0.9575,-3.1374,4.1908,9.2901,1,0,0
-0.2407,0.238,0.9668,-3.6718,3.6107,9.2595,1,0,0
-0.2217,0.249,0.967,-2.9313,3.2901,9.9008,1,0,0
-0.229,0.2341,0.9744,-2.2595,4.1221,10.3282,1,0,0
-0.2231,0.2559,0.979,-0.8168,4.2214,10.9084,1,0,0
-0.2292,0.2654,0.9663,-0.6183,4.5115,11.1756,1,0,0
-0.2297,0.2754,0.9673,-0.9008,3.6718,10.6718,1,0,0
-0.2141,0.2827,0.9724,-0.9924,4.3206,11.2748,1,0,0
-0.198,0.2944,0.9949,-0.626,6.3053,10.9771,1,0,0
-0.2415,0.304,0.949,0.0763,5.1832,10.6107,1,0,0
-0.2227,0.2813,0.9795,-1.5344,7.5191,9.8931,1,0,0
-0.2527,0.2893,0.958,-0.6718,4.2061,9.0229,1,0,0
-0.2258,0.2795,0.9719,0.6718,3.0382,9.0458,1,0,0
-0.2239,0.2976,0.9856,1.8244,2.8779,9.0458,1,0,0
-0.2095,0.3171,0.9863,1.771,3.3893,7.5954,1,0,0
-0.219,0.3105,0.9895,0.4198,7.1527,6.9695,1,0,0
-0.2148,0.3196,0.9927,-1.1298,8.7252,7.0687,1,0,0
-0.2581,0.2932,0.9741,0.5191,6.7557,6.9084,1,0,0
-0.2288,0.2842,0.9534,2.5038,6.687,6.771,1,0,0
-0.2322,0.2927,0.9656,5.3282,6.2137,5.1145,1,0,0
-0.2183,0.2988,0.9587,6.229,5.9084,4.0,1,0,0
-0.1619,0.3262,0.9834,5.687,9.0382,2.4351,1,0,0
-0.1953,0.333,0.9937,6.1298,11.3817,0.2214,1,0,0
-0.229,0.3071,0.9377,5.458,14.4046,-1.4962,1,0,0
-0.2581,0.2896,0.9165,5.3206,11.4656,-2.4275,1,0,0
-0.2344,0.2908,0.9167,4.9618,8.9389,-1.5878,1,0,0
-0.2434,0.2822,0.8989,5.2824,4.9618,-0.7863,1,0,0
-0.2314,0.2886,0.9016,4.8855,1.0458,0.2901,1,0,0
-0.2141,0.3062,0.9116,4.4275,-1.0534,0.916,1,0,0
-0.2275,0.3071,0.9177,3.5115,-1.5344,0.1527,1,0,0
-0.2554,0.3191,0.9009,2.6641,-5.0,-1.5115,1,0,0
-0.2087,0.325,0.9062,1.2977,-5.0534,-1.9237,1,0,0
-0.2295,0.2935,0.9175,2.6183,-7.9924,-2.626,1,0,0
-0.2102,0.3083,0.928,2.8015,-9.5267,-2.3664,1,0,0
-0.2095,0.332,0.9441,1.9771,-9.0076,-4.3969,1,0,0
-0.2112,0.3333,0.9453,-0.6412,-8.0382,-6.2519,1,0,0
-0.231,0.3115,0.9287,-2.4733,-5.1145,-8.2901,1,0,0
-0.2307,0.2917,0.9424,-3.0687,-5.7481,-8.1069,1,0,0
-0.2112,0.2681,0.9524,-2.9084,-3.9618,-5.2595,1,0,0
-0.2405,0.2678,0.949,-3.9237,-5.4885,-3.3664,1,0,0
-0.231,0.2673,0.9504,-3.9847,-4.4046,-3.1527,1,0,0
-0.2505,0.2568,0.9531,-3.0382,-4.5115,-3.5649,1,0,0
-0.2488,0.2529,0.9551,-1.5878,-4.5267,-3.8473,1,0,0
-0.2456,0.2554,0.958,-1.7023,-4.2901,-3.7634,1,0,0
-0.2532,0.2612,0.9663,-2.4275,-3.8855,-3.0687,1,0,0
-0.2417,0.2625,0.9685,-2.9695,-3.0305,-2.0687,1,0,0
-0.248,0.2629,0.9683,-2.6336,-1.8626,-0.8702,1,0,0
-0.2532,0.2939,0.957,-3.6489,-1.145,-1.9237,1,0,0
-0.261,0.2825,0.9648,-4.9542,-0.6489,-1.7939,1,0,0
-0.2671,0.2773,0.9724,-4.084,-1.1221,-2.0305,1,0,0
-0.2546,0.2747,0.9727,-2.9924,0.0,-2.0611,1,0,0
-0.2542,0.2566,0.979,-1.5191,1.0382,-1.855,1,0,0
-0.2634,0.2778,0.9626,-0.9084,1.3664,-2.084,1,0,0
-0.2649,0.2766,0.9644,-2.8092,1.1756,-2.5115,1,0,0
-0.2585,0.271,0.9729,-4.1145,1.0611,-1.4885,1,0,0
-0.2595,0.2593,0.967,-4.1374,2.0076,-1.2672,1,0,0
-0.2703,0.2556,0.9624,-3.2366,1.5191,-0.2748,1,0,0
-0.2625,0.2527,0.9644,-2.5573,1.0992,1.229,1,0,0
-0.2654,0.2627,0.9666,-0.4809,0.5878,2.0611,1,0,0
-0.2559,0.2778,0.9685,0.2519,0.9771,2.0153,1,0,0
-0.2493,0.2939,0.9561,-1.2901,1.4962,2.1145,1,0,0
-0.2549,0.2837,0.9521,-3.1298,1.4885,1.1374,1,0,0
-0.2578,0.2854,0.9622,-3.4885,1.2061,1.1527,1,0,0
-0.2527,0.2927,0.9609,-3.4427,0.7939,1.1221,1,0,0
-0.252,0.2817,0.9617,-3.0916,0.4962,1.1527,1,0,0
-0.2444,0.2937,0.96,-0.7863,0.1832,0.9389,1,0,0
-0.2485,0.3062,0.9597,1.0076,-1.145,-0.313,1,0,0
-0.2231,0.3311,0.9539,1.5954,-1.4656,-2.6183,1,0,0
-0.2205,0.3499,0.948,1.4351,-1.626,-5.9695,1,0,0
-0.2239,0.3765,0.9346,0.3969,-2.1985,-10.145,1,0,0
-0.2012,0.3882,0.9163,-1.6947,-4.084,-17.0611,1,0,0
-0.2131,0.3833,0.8879,-4.1527,-8.3282,-24.4656,1,0,0
-0.2092,0.3669,0.8552,-3.6412,-15.6183,-30.4809,1,0,0
-0.2004,0.3523,0.8354,-4.1679,-25.3282,-34.4198,1,0,0
-0.209,0.3733,0.8062,-6.0763,-37.0992,-38.2214,0,0,0
-0.1672,0.3767,0.8145,-7.6107,-50.6718,-41.6947,0,0,0
-0.1499,0.3518,0.8191,-8.3511,-63.0992,-43.9924,0,0,0
-0.1333,0.3628,0.8201,-6.3206,-74.0,-48.7328,0,0,0
-0.1384,0.4385,0.7998,-6.145,-84.1298,-59.3893,0,0,0
-0.1509,0.4199,0.8113,-4.5191,-94.3817,-71.0916,0,0,0
-0.1855,0.3667,0.7966,2.3282,-108.1603,-77.5191,0,0,0
-0.0728,0.3257,0.8796,12.3969,-113.7786,-81.1908,0,0,0
-0.0754,0.3201,0.9045,24.4809,-115.9084,-82.9542,0,0,0
-0.041,0.3162,0.9553,32.3969,-113.4657,-82.4046,0,0,0
-0.0757,0.3289,0.9834,41.8092,-105.9466,-84.8397,0,0,0
-0.0867,0.3267,0.9988,47.5725,-105.7176,-88.0076,0,0,0
-0.0166,0.3481,1.0059,49.4656,-99.8779,-89.7557,0,0,0
0.0002,0.303,1.0337,47.7328,-91.6947,-91.9313,0,0,0
0.0171,0.3376,1.0837,43.1145,-79.4198,-92.2519,0,0,0
-0.1208,0.1982,1.1279,35.0687,-56.6412,-86.458,0,0,0
-0.0129,0.2151,1.1292,33.3969,-48.0534,-72.1985,0,0,0
0.0496,0.2751,1.1887,21.0382,-20.2824,-69.4733,0,0,0
-0.0613,0.189,1.0942,14.2824,-9.6107,-60.771,0,0,0
0.0166,0.1821,1.1335,11.687,2.8473,-51.9771,0,0,0
0.0603,0.2375,1.1787,12.0687,10.9313,-46.6031,0,0,0
-0.0688,0.1633,1.0952,12.5344,22.084,-39.4198,0,0,0
-0.0596,0.2004,1.1069,12.1374,25.4733,-34.1298,0,0,0
-0.0857,0.2075,1.062,9.8626,28.1069,-31.2977,0,0,0
-0.1223,0.2471,1.0369,9.0076,27.3511,-27.4656,0,0,0
-0.0696,0.1965,1.0618,8.8168,26.2137,-23.4122,0,0,0
-0.113,0.2759,1.0461,5.5802,30.2901,-20.4122,0,0,0
-0.1228,0.2813,1.0273,1.5038,31.2137,-16.8168,0,0,0
-0.1375,0.2803,0.9988,-0.687,29.4046,-13.7328,0,0,0
-0.1638,0.2776,0.9636,-2.3282,24.0076,-10.771,0,0,0
-0.1279,0.2915,0.9888,-5.4046,21.1679,-6.0076,0,0,0
-0.1562,0.2996,0.9824,-8.1756,17.1374,-1.5191,0,0,0
-0.1421,0.2993,0.988,-9.2443,15.2977,1.1374,0,0,0
-0.1343,0.3279,0.9946,-12.1679,17.2824,2.5649,0,0,0
-0.1311,0.2727,1.0317,-12.9389,16.8626,5.229,0,0,0
-0.1687,0.2869,0.9749,-13.2214,19.7863,3.2519,0,0,0
-0.1523,0.2905,0.9824,-10.4427,17.1603,3.1603,0,0,0
-0.1226,0.322,1.012,-7.374,18.0687,4.9466,0,0,0
-0.1204,0.3027,0.9888,-5.4733,22.5267,6.9008,0,0,0
-0.1343,0.291,0.981,-2.8015,23.2061,8.9313,0,0,0
-0.1694,0.3303,0.9551,-3.2901,25.7328,6.7176,0,0,0
-0.1702,0.3213,0.9377,-3.3282,23.6031,5.1374,0,0,0
-0.1707,0.3157,0.9578,-3.7557,19.7786,6.5725,0,0,0
-0.1257,0.3218,1.0198,-5.4733,20.626,10.4885,0,0,0
-0.1333,0.3125,1.0071,-7.5802,27.5573,13.6412,0,0,0
-0.1316,0.323,0.9934,-8.3206,31.6641,14.7023,0,0,0
-0.1667,0.3406,0.9626,-11.0611,33.0382,13.6641,0,0,0
-0.1755,0.3623,0.9592,-16.229,32.084,13.7863,0,0,0
-0.1704,0.3237,0.9626,-18.6183,31.0611,16.687,0,0,0
-0.1899,0.3076,0.9473,-16.6565,29.8855,17.9542,0,0,0
-0.186,0.313,0.9539,-16.2748,30.8626,19.5191,0,0,0
-0.1948,0.3318,0.97,-17.6031,31.2214,21.3435,0,0,0
-0.189,0.3269,0.9851,-21.2137,35.1756,21.3053,0,0,0
-0.156,0.2898,0.9897,-21.2214,38.1374,21.1527,0,0,0
-0.2041,0.3044,0.9822,-23.0687,41.1298,22.0076,0,0,0
-0.2202,0.3206,0.97,-26.5267,39.6641,27.0611,0,0,0
-0.2715,0.2761,0.9395,-27.0305,41.3588,27.8092,0,0,0
-0.2656,0.3115,0.9143,-23.6947,38.084,28.9542,0,0,0
-0.2615,0.2324,0.9353,-20.4351,30.8092,26.4656,0,0,0
-0.2429,0.2749,0.9543,-19.9313,31.7786,26.1756,0,0,0
-0.252,0.2678,0.9729,-21.5038,34.7328,25.7863,0,0,0
-0.2114,0.261,0.9783,-22.7176,35.3664,25.3588,0,0,0
-0.2705,0.3694,0.9546,-21.5267,42.1298,24.9695,0,0,0
-0.2195,0.3254,0.9839,-21.2519,37.1756,19.0916,0,0,0
-0.2639,0.2397,0.9641,-20.1221,34.6794,16.2519,0,0,0
-0.2888,0.2307,0.9487,-18.458,35.8626,16.6947,0,0,0
-0.2908,0.2678,0.9578,-15.7939,38.313,16.3969,0,0,0
-0.3389,0.29,0.9463,-17.2748,36.8244,13.3893,0,0,0
-0.2729,0.2781,0.9744,-19.5725,39.9237,12.9771,0,0,0
-0.3159,0.2656,0.9531,-18.6183,37.2672,12.4885,0,0,0
-0.3157,0.2825,0.9338,-18.8015,36.7481,10.5954,0,0,0
-0.3479,0.2817,0.9211,-18.7481,33.1527,7.6412,0,0,0
-0.3582,0.2849,0.9189,-19.2977,29.3359,4.2595,0,0,0
-0.3596,0.2712,0.9111,-20.1145,24.6565,2.3817,0,0,0
-0.3528,0.2659,0.9082,-21.0229,19.5649,1.6489,0,0,0
-0.343,0.2405,0.9097,-21.0611,16.7023,1.145,0,0,0
-0.3286,0.2463,0.9126,-19.8397,16.0229,1.3359,0,0,0
-0.3376,0.2478,0.9209,-19.3206,14.313,0.7634,0,0,0
-0.3142,0.2578,0.9211,-19.2519,14.0458,-0.8473,0,0,0
-0.3494,0.2168,0.9099,-17.0458,12.229,0.7557,0,0,0
-0.3289,0.2285,0.9185,-14.5115,9.3435,1.5038,0,0,0
-0.3455,0.2058,0.9177,-11.7863,7.7099,1.1832,0,0,0
-0.3452,0.2095,0.9094,-8.6947,4.8244,2.0305,0,0,0
-0.3005,0.2339,0.9075,-7.2519,3.771,2.0382,0,0,0
-0.302,0.2251,0.9614,-6.1298,5.7557,-0.0382,0,0,0
-0.3462,0.2556,0.9324,-9.6336,4.8779,0.0992,0,0,0
-0.3213,0.2004,0.9268,-8.771,6.2901,-0.4733,0,0,0
-0.333,0.1919,0.9368,-5.8702,5.6336,1.2977,0,0,0
-0.3342,0.2083,0.9363,-4.2061,5.6183,1.7099,0,0,0
-0.3423,0.2236,0.9353,-4.0763,4.9847,2.4885,0,0,0
-0.3408,0.2256,0.929,-3.0534,3.9313,2.4122,0,0,0
-0.3459,0.2322,0.9329,-2.9084,2.6412,1.2824,0,0,0
-0.3545,0.2373,0.9216,-3.5802,0.9924,0.6565,0,0,0
-0.356,0.2383,0.9133,-4.3511,-2.4351,-0.0763,0,0,0
-0.365,0.252,0.894,-5.3969,-5.2595,1.0687,0,0,0
-0.3269,0.2542,0.9194,-6.6641,-7.2977,-0.3435,0,0,0
-0.3276,0.2285,0.9131,-7.1832,-7.5344,-0.7863,0,0,0
-0.2778,0.3147,0.9238,-3.9542,-0.7405,-6.3206,0,0,0
-0.3618,0.1047,0.8838,1.3206,-3.771,-1.6565,0,0,0
-0.3525,0.2449,0.9185,3.3435,-6.9084,1.8626,0,0,0
-0.3269,0.2759,0.9277,-0.5725,-6.5725,-1.6947,0,0,0
-0.3496,0.2363,0.915,-1.2901,-7.9771,-3.916,0,0,0
-0.3564,0.2187,0.9194,-3.0153,-11.4962,-2.4351,0,0,0
-0.3428,0.2212,0.9253,-1.8626,-14.4198,-1.7557,0,0,0
-0.3547,0.1941,0.9265,-1.7099,-16.6794,-0.4198,0,0,0
-0.3147,0.1978,0.9521,1.0305,-16.5038,1.5878,0,0,0
-0.3181,0.2073,0.9619,3.3435,-16.3893,3.3588,0,0,0
-0.3179,0.2346,0.9658,3.1756,-14.1756,3.3282,0,0,0
-0.3042,0.2397,0.9731,1.8015,-11.4351,1.1679,0,0,0
-0.3049,0.208,0.9744,0.916,-10.8168,1.2672,0,0,0
-0.3142,0.2341,0.9792,1.2595,-10.7863,0.7786,0,0,0
-0.2964,0.2095,0.98,1.6489,-10.7328,0.9771,0,0,0
-0.2991,0.2251,0.978,1.4962,-8.5496,1.6641,0,0,0
-0.2942,0.2339,0.9846,0.8779,-6.2824,1.6107,0,0,0
-0.3057,0.2498,0.9734,-0.4198,-4.6107,0.5038,0,0,0
-0.302,0.2332,0.9849,-1.5267,-3.0305,-0.1145,0,0,0
-0.3057,0.2285,0.9761,-1.0382,-1.8015,0.5191,0,0,0
-0.2971,0.2307,0.9797,-1.2672,0.687,1.1832,0,0,0
-0.3154,0.2395,0.9775,-1.8626,2.0382,1.4351,0,0,0
-0.3176,0.2532,0.97,-3.229,2.145,1.0458,0,0,0
-0.3218,0.2209,0.9663,-3.3435,2.2061,1.0611,0,0,0
-0.3062,0.2239,0.9768,-0.8015,2.5878,2.0458,0,0,0
-0.3083,0.2498,0.967,0.3053,3.2443,1.2595,0,0,0
-0.3081,0.2458,0.9521,-0.229,2.6412,-0.0992,0,0,0
-0.3071,0.2488,0.9504,-0.3893,2.458,-0.9771,0,0,0
-0.2979,0.2368,0.9512,-0.4046,3.1221,-1.1069,0,0,0
-0.3066,0.2488,0.9392,-0.6183,3.8397,-1.0229,0,0,0
-0.3123,0.2561,0.927,-2.1374,2.0534,-1.1298,0,0,0
-0.3157,0.2385,0.9192,-2.4885,-0.4733,-1.5802,0,0,0
-0.3044,0.2292,0.9263,-0.8626,-1.9237,-1.229,0,0,0
-0.3071,0.2324,0.9282,1.7786,-2.0916,-0.3435,0,0,0
-0.3057,0.2458,0.9409,2.5649,-1.8015,-0.7328,0,0,0
-0.2974,0.2522,0.9539,2.3435,-0.6641,-0.7252,0,0,0
-0.2937,0.2539,0.9526,1.9237,0.3893,-1.1985,0,0,0
-0.2944,0.2568,0.9653,0.8855,2.5344,-2.084,0,0,0
-0.3008,0.2651,0.969,-1.1756,4.4275,-3.1374,0,0,0
-0.3062,0.2578,0.9729,-2.8702,6.1603,-3.6183,0,0,0
-0.3037,0.2493,0.9834,-2.4427,7.7634,-4.5267,0,0,0
-0.3237,0.259,0.969,-3.8855,10.6794,-4.9313,0,0,0
-0.3225,0.2305,0.96,-4.3893,11.1603,-5.1908,0,0,0
-0.321,0.208,0.9661,-2.687,11.9466,-4.1298,0,0,0
-0.3215,0.2148,0.9846,0.4885,14.5267,-3.8321,0,0,0
-0.3308,0.2363,0.9756,2.3893,17.7405,-5.0687,0,0,0
-0.333,0.238,0.9561,1.8702,19.7176,-6.6031,0,0,0
-0.3369,0.2327,0.9563,-1.313,19.5267,-6.0076,0,0,0
-0.3411,0.2136,0.95,-2.1527,18.4122,-5.8931,0,0,0
-0.3354,0.1975,0.9668,0.2137,19.4198,-6.1298,0,0,0
-0.3618,0.1965,0.9673,2.6107,21.7252,-6.4122,0,0,0
-0.3772,0.2561,0.9548,2.3282,21.8397,-6.8321,0,0,0
-0.3611,0.2471,0.9553,0.8626,22.7863,-8.0153,0,0,0
-0.3855,0.2117,0.9338,0.5878,20.626,-6.2443,0,0,0
-0.3931,0.2134,0.9224,3.3053,19.0229,-4.771,0,0,0
-0.3718,0.2273,0.9253,4.626,17.9084,-3.3664,0,0,0
-0.3813,0.2466,0.918,2.5115,16.7634,-2.7405,0,0,0
-0.3857,0.248,0.9136,-0.3893,15.2748,-2.4046,0,0,0
-0.3662,0.2363,0.9272,-2.0229,17.0229,-2.855,0,0,0
-0.3662,0.2288,0.927,-1.7099,19.1908,-3.4198,0,0,0
-0.3892,0.2229,0.9004,-0.8931,19.2748,-3.1221,0,0,0
-0.3745,0.2236,0.9272,-0.2137,19.4046,-4.9542,0,0,0
-0.4058,0.2517,0.8909,-0.8244,16.5038,-4.9847,0,0,0
-0.3933,0.2251,0.8916,-0.8015,12.5725,-3.2748,0,0,0
-0.4028,0.2256,0.8816,0.4962,8.9389,-1.6947,0,0,0
-0.3862,0.231,0.8955,-0.3664,8.5115,-1.0229,0,0,0
-0.3853,0.2456,0.884,-3.2824,8.0153,-1.687,0,0,0
-0.3989,0.2446,0.8826,-5.8626,6.6489,-1.8931,0,0,0
-0.3921,0.2336,0.8757,-6.3817,4.7557,-1.3588,0,0,0
-0.3923,0.2227,0.8862,-5.2977,2.8855,-1.2672,0,0,0
-0.3933,0.2244,0.8867,-3.4962,1.0153,-0.6565,0,0,0
-0.3938,0.2297,0.8879,-1.9771,0.2137,-0.5115,0,0,0
-0.3914,0.2473,0.8757,-2.3664,-2.1069,0.458,0,0,0
-0.3972,0.2458,0.873,-4.9695,-3.7939,0.4275,0,0,0
-0.4014,0.2534,0.8828,-7.9313,-5.7786,0.374,0,0,0
-0.3787,0.3472,0.9243,-13.9618,-5.5802,-2.8855,0,0,0
-0.384,0.2021,0.8513,-14.7023,-1.3817,-3.9695,0,0,0
-0.4578,0.1665,0.8557,-9.145,-9.8015,-0.1527,0,0,0
-0.3887,0.2026,0.9106,-7.6336,-11.9618,-0.0687,0,0,0
-0.3813,0.2126,0.9336,-5.6794,-11.1908,-0.9084,0,0,0
-0.3743,0.1997,0.9219,-3.3206,-8.5115,-0.2824,0,0,0
-0.3853,0.2048,0.926,-1.6947,-7.5802,0.6718,0,0,0
-0.3867,0.239,0.9336,-1.9466,-7.3664,-0.2443,0,0,0
-0.3906,0.2285,0.9214,-3.0687,-6.7481,-0.7786,0,0,0
-0.3823,0.2166,0.9233,-3.7023,-7.3359,-0.5802,0,0,0
-0.3882,0.2175,0.925,-3.687,-7.9618,-0.7176,0,0,0
-0.3887,0.2139,0.9224,-3.1221,-8.4046,0.0992,0,0,0
-0.3948,0.2246,0.9182,-2.626,-8.8321,0.7252,0,0,0
-0.3735,0.2349,0.925,-3.5115,-8.4504,-0.0153,0,0,0
-0.3823,0.2273,0.9277,-3.8626,-7.7328,-0.3206,0,0,0
-0.3818,0.2307,0.9309,-4.1756,-6.9389,-0.4809,0,0,0
-0.3784,0.2219,0.9485,-3.2519,-6.8015,-0.6412,0,0,0
-0.3684,0.2207,0.9614,-2.6718,-4.9008,-0.3359,0,0,0
-0.3718,0.2239,0.9646,-2.7176,-3.0,0.0,0,0,0
-0.3721,0.2275,0.9597,-2.2748,-2.084,-0.0076,0,0,0
-0.3782,0.2161,0.9546,-2.458,-1.229,-0.5038,0,0,0
-0.3813,0.2124,0.9453,-1.4427,-0.8015,-0.626,0,0,0
-0.3738,0.2249,0.9448,-0.687,-0.8244,-0.1832,0,0,0
-0.3796,0.2256,0.9341,-1.2901,-0.4733,0.1832,0,0,0
-0.3748,0.2285,0.9375,-1.7634,-0.6489,-0.1374,0,0,0
-0.365,0.2341,0.9333,-2.1374,-0.2061,-0.3359,0,0,0
-0.3613,0.2419,0.9246,-3.0763,-0.1679,-1.0687,0,0,0
-0.3687,0.2393,0.9243,-5.3511,0.0687,-1.8397,0,0,0
-0.3691,0.2195,0.9182,-5.5878,-0.3588,-1.2977,0,0,0
-0.3569,0.2102,0.9319,-3.5573,-0.374,-0.7786,0,0,0
-0.3569,0.2317,0.9255,-2.687,0.3511,-0.8779,0,0,0
-0.3643,0.2346,0.915,-3.7634,0.3588,-1.542,0,0,0
-0.3635,0.2271,0.9133,-4.3359,0.0534,-2.0458,0,0,0
-0.3647,0.2268,0.9111,-4.687,-0.0458,-2.2748,0,0,0
-0.377,0.2175,0.9014,-5.3969,-1.0534,-1.8244,0,0,0
-0.3672,0.2209,0.917,-5.8321,-1.6336,-1.3053,0,0,0
-0.3625,0.2114,0.9185,-5.7328,-1.8626,-0.5344,0,0,0
-0.3677,0.2236,0.9143,-6.6107,-2.0,0.0382,0,0,0
-0.3665,0.2249,0.9175,-8.0763,-1.9542,-0.7328,0,0,0
-0.3774,0.2114,0.9167,-8.1603,-2.1985,-1.0153,0,0,0
-0.3787,0.2202,0.926,-8.0687,-2.3893,-1.2901,0,0,0
-0.3884,0.207,0.9175,-8.0916,-3.4656,-1.3282,0,0,0
-0.3889,0.1965,0.9216,-7.3817,-3.5267,-1.4198,0,0,0
-0.3843,0.1985,0.9348,-6.084,-3.6183,-1.8626,0,0,0
-0.3799,0.1934,0.9407,-4.1832,-3.2977,-1.6565,0,0,0
-0.3784,0.197,0.9421,-2.9847,-3.4504,-1.145,0,0,0
-0.3777,0.198,0.9397,-2.1756,-3.6412,-1.6641,0,0,0
-0.3779,0.2031,0.9448,-2.0458,-3.6565,-1.0534,0,0,0
-0.3726,0.2119,0.9478,-3.0916,-3.6794,-1.5496,0,0,0
-0.3743,0.2019,0.9424,-3.7252,-3.9771,-1.145,0,0,0
-0.3696,0.1982,0.9487,-3.0305,-3.8626,-1.542,0,0,0
-0.3733,0.1924,0.9502,-1.5573,-3.5267,-1.6718,0,0,0
-0.3755,0.2107,0.9438,0.1756,-3.8626,-1.5573,0,0,0
-0.3752,0.2124,0.9377,1.7557,-3.5573,-2.0305,0,0,0
-0.3711,0.2102,0.9307,3.1069,-3.8931,-2.2901,0,0,0
-0.377,0.218,0.9312,4.542,-4.4122,-2.3282,0,0,0
-0.3401,0.2371,0.9417,5.2214,-5.5573,-2.9771,0,0,0
-0.3718,0.2324,0.9275,4.229,-5.3282,-3.0687,0,0,0
-0.3567,0.24,0.9294,2.4046,-5.0305,-4.0305,0,0,0
-0.3506,0.2163,0.9299,1.0458,-5.1527,-4.4504,0,0,0
-0.3528,0.2148,0.9304,0.5115,-4.5267,-4.0916,0,0,0
-0.3547,0.1931,0.9121,1.2672,-5.4122,-3.8168,0,0,0
-0.3618,0.1897,0.9158,2.1908,-5.7252,-3.229,0,0,0
-0.3672,0.1909,0.8997,2.6565,-6.916,-2.6641,0,0,0
-0.3496,0.1868,0.9146,2.0153,-8.2443,-2.0305,0,0,0
-0.3472,0.1799,0.9192,0.7328,-7.7863,-0.3664,0,0,0
-0.3452,0.1895,0.925,-1.1221,-7.6183,0.6031,0,0,0
-0.3511,0.1775,0.9182,-3.2901,-6.7481,1.0229,0,0,0
-0.3525,0.1685,0.9285,-5.6947,-6.5115,1.8168,0,0,0
-0.3538,0.1558,0.9226,-6.1527,-6.084,2.7557,0,0,0
-0.3589,0.1438,0.9104,-5.3969,-6.5344,5.0076,0,0,0
-0.363,0.1501,0.9182,-3.9542,-8.0,6.8015,0,0,0
-0.3555,0.1716,0.929,-3.1069,-8.4733,7.9389,0,0,0
-0.3901,0.1826,0.9204,-3.9847,-9.1298,8.7176,0,0,0
-0.3313,0.1968,0.9343,-4.8779,-8.2824,8.3359,0,0,0
-0.364,0.1936,0.917,-5.1908,-8.0611,9.0382,0,0,0
-0.3516,0.2144,0.9353,-5.4504,-9.1603,9.8321,0,0,0
-0.3687,0.2314,0.9377,-4.9695,-11.0153,9.4962,0,0,0
-0.3589,0.2451,0.9431,-4.6794,-12.4656,8.6641,0,0,0
-0.3457,0.2512,0.9504,-4.6107,-12.3053,7.6031,0,0,0
-0.3386,0.2402,0.9644,-4.1527,-11.7023,6.8779,0,0,0
-0.3262,0.2388,0.9626,-3.771,-10.5267,5.9542,0,0,0
-0.3301,0.2395,0.9646,-3.8397,-9.8855,5.2672,0,0,0
-0.3276,0.241,0.9641,-3.9084,-10.5267,5.1221,0,0,0
-0.3193,0.2427,0.9778,-4.2672,-10.542,5.2214,0,0,0
-0.311,0.2505,0.9937,-3.1756,-9.4733,4.7481,0,0,0
-0.3035,0.2573,0.9854,-3.4885,-7.1298,2.9008,0,0,0
-0.3154,0.2554,0.9756,-3.4504,-5.6107,1.5573,0,0,0
-0.314,0.2417,0.9731,-3.7252,-4.7405,1.0076,0,0,0
-0.3179,0.2407,0.9695,-2.8931,-4.0382,0.9847,0,0,0
-0.3179,0.2344,0.9626,-2.0,-4.145,0.7481,0,0,0
-0.312,0.2415,0.9697,-2.7328,-3.7023,0.7634,0,0,0
-0.314,0.2371,0.9697,-3.2672,-2.8321,-0.0305,0,0,0
-0.3167,0.2246,0.97,-3.1832,-2.3511,-0.4656,0,0,0
-0.3191,0.2212,0.9685,-2.2824,-1.8092,-0.5038,0,0,0
-0.3123,0.2239,0.9634,-1.8168,-1.3664,-0.4351,0,0,0
-0.3245,0.2222,0.9644,-2.0992,-1.2366,-0.6183,0,0,0
-0.3159,0.1978,0.9678,-1.0153,-0.9695,-0.0763,0,0,0
-0.3081,0.2063,0.9658,-0.2137,0.0,0.2672,0,0,0
-0.3142,0.2251,0.9573,-0.458,0.1985,-0.0611,0,0,0
-0.3159,0.219,0.9602,-1.2443,-0.0534,-1.2214,0,0,0
-0.3147,0.2073,0.9653,-2.313,0.0076,-1.3282,0,0,0
-0.3162,0.1936,0.9592,-2.0382,0.4275,-0.5115,0,0,0
-0.3181,0.189,0.9553,-1.2977,0.3588,0.3511,0,0,0
-0.3093,0.2026,0.9517,-2.0229,0.4351,0.8397,0,0,0
-0.3103,0.2061,0.9519,-1.626,0.6412,0.4427,0,0,0
-0.314,0.208,0.9536,-1.4275,1.1298,0.0916,0,0,0
-0.3171,0.2124,0.9375,-1.5954,1.0534,0.0382,0,0,0
-0.3179,0.2144,0.928,-3.0,0.771,-0.2901,0,0,0
-0.3232,0.2139,0.9294,-4.6183,0.5802,-0.5954,0,0,0
-0.3098,0.196,0.9333,-5.2595,0.313,-0.0763,0,0,0
-0.3127,0.1907,0.9385,-4.8244,0.4656,0.9008,0,0,0
-0.312,0.1938,0.946,-3.8779,0.313,1.2061,0,0,0
-0.3198,0.1921,0.9324,-3.7481,-0.2137,1.5344,0,0,0
-0.3186,0.1973,0.9438,-3.4122,-0.8702,1.6565,0,0,0
-0.322,0.2036,0.9468,-3.6565,-1.5725,1.8092,0,0,0
-0.3259,0.2109,0.9436,-3.6947,-2.7405,1.5038,0,0,0
-0.325,0.2095,0.9468,-3.3206,-3.2137,1.1985,0,0,0
-0.321,0.2126,0.9614,-2.3359,-2.9237,1.5573,0,0,0
-0.321,0.2222,0.957,-1.7863,-2.2824,1.5191,0,0,0
-0.3157,0.2341,0.9619,-2.2443,-1.6107,0.1298,0,0,0
-0.3083,0.2153,0.9526,-3.2748,-1.8702,-0.6183,0,0,0
-0.3118,0.2073,0.949,-3.0458,-1.8015,-0.2443,0,0,0
-0.3081,0.2078,0.9504,-2.7939,-1.7557,0.0,0,0,0
-0.3018,0.2107,0.9541,-3.1527,-2.1221,0.3893,0,0,0
-0.3086,0.2212,0.9529,-3.5115,-2.3282,-0.084,0,0,0
-0.3008,0.2224,0.9495,-3.5344,-2.0229,-0.5573,0,0,0
-0.3101,0.2222,0.9482,-3.9466,-2.5115,-1.1374,0,0,0
-0.3093,0.229,0.9419,-3.4122,-3.1832,-1.9695,0,0,0
-0.313,0.2324,0.9338,-3.3206,-3.4046,-2.8015,0,0,0
-0.3154,0.231,0.9336,-2.3969,-3.7863,-3.6107,0,0,0
-0.3188,0.2485,0.9312,-2.4427,-4.542,-4.4122,0,0,0
-0.3181,0.238,0.9324,-2.8626,-5.4885,-5.5802,0,0,0
-0.3105,0.2354,0.9426,-2.626,-6.458,-6.0611,0,0,0
-0.3027,0.2405,0.9434,-1.7786,-6.6183,-6.5115,0,0,0
-0.3103,0.2498,0.9421,-1.3664,-7.0305,-7.458,0,0,0
-0.3152,0.249,0.9348,-1.1298,-7.9924,-8.2672,0,0,0
-0.3147,0.252,0.9368,0.1756,-9.0992,-9.5954,0,0,0
-0.3237,0.2502,0.9221,1.4275,-10.7634,-10.6183,0,0,0
-0.3147,0.2529,0.9231,2.1756,-12.8855,-11.7557,0,0,0
-0.3049,0.2507,0.9363,2.3053,-14.4504,-11.916,0,0,0
-0.2869,0.2473,0.9478,0.3435,-14.7328,-11.7099,0,0,0
-0.2913,0.2456,0.9487,-1.0076,-13.8092,-11.6031,0,0,0
-0.2888,0.2288,0.946,-2.3359,-14.0382,-11.6641,0,0,0
-0.2803,0.2,0.9551,-2.2137,-14.2137,-11.2061,0,0,0
-0.2798,0.1821,0.9661,-0.6947,-14.4809,-10.2901,0,0,0
-0.2695,0.1833,0.9768,1.8092,-14.2824,-9.6183,0,0,0
-0.2607,0.1709,0.9739,2.6489,-13.4809,-9.2519,0,0,0
-0.2603,0.1833,0.9819,4.1756,-12.4351,-9.2672,0,0,0
-0.2581,0.1748,0.9783,3.8626,-11.3893,-9.4198,0,0,0
-0.2664,0.1665,0.9744,3.9618,-10.5649,-9.0,0,0,0
-0.272,0.1726,0.9717,3.9237,-10.4198,-8.4351,0,0,0
-0.2781,0.1809,0.967,2.626,-10.5802,-7.6412,0,0,0
-0.2734,0.1814,0.9641,1.8092,-10.8473,-7.0611,0,0,0
-0.2751,0.1758,0.97,1.6794,-11.2519,-6.3664,0,0,0
-0.2693,0.1868,0.968,1.5802,-10.4504,-5.916,0,0,0
-0.2722,0.1772,0.9687,0.3435,-10.5115,-5.9389,0,0,0
-0.269,0.1851,0.9695,0.0305,-9.9618,-4.9008,0,0,0
-0.2681,0.197,0.9727,0.1679,-8.7939,-4.4809,0,0,0
-0.2739,0.2034,0.9717,0.1679,-8.1832,-5.2366,0,0,0
-0.2742,0.2151,0.9658,0.0229,-8.2443,-5.3664,0,0,0
-0.2864,0.2144,0.9702,-0.6641,-8.1145,-5.8931,0,0,0
-0.2786,0.207,0.9661,-0.6718,-8.2901,-6.2443,0,0,0
-0.2817,0.2092,0.9692,-0.5573,-8.7023,-6.0534,0,0,0
-0.2754,0.1948,0.9814,0.1908,-8.1908,-5.1832,0,0,0
-0.2727,0.2061,0.9893,2.4275,-7.2595,-4.0687,0,0,0
-0.2678,0.2207,0.9922,3.3511,-6.4885,-3.9313,0,0,0
-0.2661,0.2295,0.9875,2.7481,-6.2824,-5.2824,0,0,0
-0.2715,0.2187,0.9963,1.2595,-5.7481,-6.0153,0,0,0
-0.2625,0.2065,1.0063,1.1603,-4.4962,-5.626,0,0,0
-0.2693,0.2212,1.0039,0.9618,-3.3359,-4.8931,0,0,0
-0.2676,0.2195,0.9968,0.1832,-3.3435,-5.542,0,0,0
-0.2673,0.2231,0.9968,-0.3588,-3.0992,-5.6183,0,0,0
-0.2622,0.217,1.0073,-0.0153,-3.0,-5.7405,0,0,0
-0.2605,0.2187,0.9971,1.229,-2.313,-5.6107,0,0,0
-0.2568,0.2161,1.0049,2.0916,-1.5038,-6.3893,0,0,0
-0.2566,0.217,0.9946,2.1679,-1.771,-7.0458,0,0,0
-0.2566,0.2202,0.9893,1.5954,-2.1527,-6.7328,0,0,0
-0.2537,0.2024,1.0027,2.3435,-1.3206,-6.2977,0,0,0
-0.2561,0.2139,1.0073,3.7939,-0.5496,-5.3893,0,0,0
-0.2563,0.2258,0.9927,2.9389,0.0687,-5.7023,0,0,0
-0.2627,0.2236,0.9846,2.3282,0.0458,-6.5115,0,0,0
-0.2588,0.2268,0.9927,1.6565,0.9084,-6.8626,0,0,0
-0.2588,0.2195,0.9866,1.5878,1.771,-7.3282,0,0,0
-0.261,0.208,0.9834,1.8321,2.1527,-7.3893,0,0,0
-0.2561,0.2126,0.9783,2.7786,3.8626,-6.8321,0,0,0
-0.2693,0.2234,0.9534,1.1145,5.1527,-7.7252,0,0,0
-0.2678,0.2124,0.948,-1.2366,5.3969,-7.9924,0,0,0
-0.272,0.2036,0.9419,-3.2748,5.9237,-8.3282,0,0,0
-0.2747,0.1929,0.9128,-5.3664,5.7557,-8.1756,0,0,0
-0.2815,0.167,0.9109,-7.3664,4.3206,-6.916,0,0,0
-0.2817,0.1648,0.9148,-8.313,2.6031,-5.1756,0,0,0
-0.2876,0.1475,0.9358,-8.542,0.3359,-3.4733,0,0,0
-0.2842,0.147,0.9429,-7.5649,-0.4885,-2.1603,0,0,0
-0.2708,0.1631,0.9521,-7.7176,-0.7557,-1.3435,0,0,0
-0.2781,0.1616,0.9609,-9.2824,-0.8626,-0.8015,0,0,0
-0.2693,0.1714,0.9783,-10.9924,-0.6412,-0.3588,0,0,0
-0.2656,0.1741,0.9888,-12.5649,0.3282,0.0382,0,0,0
-0.2729,0.1748,0.9758,-12.9466,0.0611,0.3435,0,0,0
-0.2737,0.165,0.9841,-12.771,-0.6794,1.1374,0,0,0
-0.2676,0.1538,0.9932,-11.3511,-0.855,1.8168,0,0,0
-0.2637,0.1638,0.9993,-8.6336,-0.2443,2.4427,0,0,0
-0.2551,0.1736,0.9949,-6.0534,0.9847,3.084,0,0,0
-0.2605,0.1948,0.9888,-4.687,1.7863,3.2977,0,0,0
-0.2673,0.2075,0.9812,-4.3359,1.458,3.1908,0,0,0
-0.259,0.2136,0.9773,-4.3511,0.7939,3.2901,0,0,0
-0.2571,0.2183,0.9783,-3.4656,0.9389,3.1374,0,0,0
-0.261,0.2332,0.9568,-2.8855,0.3206,2.3969,0,0,0
-0.2581,0.2261,0.958,-3.4427,-0.9542,1.9313,0,0,0
-0.2559,0.2339,0.967,-3.4351,-1.8321,1.5802,0,0,0
-0.2544,0.2222,0.9668,-2.4656,-2.458,0.7252,0,0,0
-0.2554,0.2187,0.9719,-1.3282,-2.9542,0.7252,0,0,0
-0.2478,0.2278,0.9714,-0.3817,-2.7023,0.3511,0,0,0
-0.259,0.2297,0.9744,-0.0382,-2.5115,-0.4504,0,0,0
-0.251,0.2253,0.9749,-0.084,-2.1756,-0.855,0,0,0
-0.259,0.218,0.9736,-0.4122,-1.1985,-1.4122,0,0,0
-0.2612,0.2195,0.9619,-0.6107,-1.2595,-1.7634,0,0,0
-0.2617,0.2185,0.967,-1.5725,-1.0,-1.9542,0,0,0
-0.2761,0.2092,0.9551,-1.6718,-1.1374,-2.3969,0,0,0
-0.2783,0.2053,0.9504,-2.0153,-1.7405,-2.3588,0,0,0
-0.2788,0.1992,0.958,-1.8931,-2.6107,-2.1985,0,0,0
-0.2791,0.1909,0.9514,-1.1908,-3.1603,-2.0992,0,0,0
-0.2754,0.1973,0.9683,-1.2214,-3.3893,-2.0611,0,0,0
-0.2688,0.1965,0.9675,-1.687,-3.2366,-2.3893,0,0,0
-0.269,0.1885,0.9771,-1.7863,-2.5802,-2.4962,0,0,0
-0.2671,0.1809,0.9819,-1.6718,-2.7405,-2.7939,0,0,0
-0.2681,0.175,0.9849,-1.2519,-3.0229,-2.7023,0,0,0
-0.2673,0.1694,0.9834,-0.9237,-3.2595,-2.313,0,0,0
-0.2646,0.1665,0.9761,-1.1298,-3.6489,-1.7481,0,0,0
-0.2639,0.1692,0.99,-1.2748,-3.1527,-0.8473,0,0,0
-0.26,0.1702,0.9976,-1.0534,-2.7252,0.0382,0,0,0
-0.2539,0.1816,0.9961,-0.4275,-2.1298,-0.2137,0,0,0
-0.2603,0.1897,0.9932,-0.5649,-1.229,0.1298,0,0,0
-0.2668,0.2002,0.9871,-1.9771,-0.9008,0.0992,0,0,0
-0.2661,0.199,0.9895,-2.7557,-0.8015,-0.3817,0,0,0
-0.2686,0.1897,0.9871,-2.5344,-0.5115,-0.5038,0,0,0
-0.2688,0.1951,0.9873,-1.9008,-0.0382,-0.3053,0,0,0
-0.2683,0.1926,0.9807,-0.8321,-0.5038,0.1679,0,0,0
-0.2625,0.1987,0.9861,-1.1756,-0.5267,-0.0916,0,0,0
-0.2639,0.2036,0.9854,-1.4504,-0.5038,0.0611,0,0,0
-0.2639,0.2058,0.9841,-1.9695,0.1985,-0.3817,0,0,0
-0.2668,0.1978,0.9875,-2.5344,0.8397,-0.4962,0,0,0
-0.27,0.1975,0.9756,-2.8626,0.8321,-0.5649,0,0,0
-0.2678,0.1892,0.9807,-2.458,1.3435,-0.542,0,0,0
-0.2678,0.1948,0.9805,-1.8779,1.3206,0.0611,0,0,0
-0.2705,0.1963,0.9788,-2.0229,1.1908,-0.1527,0,0,0
-0.2646,0.1885,0.9817,-1.2901,1.3817,-0.0687,0,0,0
-0.2615,0.2075,0.9812,-0.3206,1.6794,-0.4198,0,0,0
-0.2659,0.2009,0.9758,-1.5038,2.1908,-1.3282,0,0,0
-0.2646,0.1909,0.9771,-2.2443,2.1679,-0.9924,0,0,0
-0.2666,0.1924,0.9802,-2.855,2.3817,-0.9389,0,0,0
-0.2712,0.1858,0.9766,-3.1832,1.9542,-0.2824,0,0,0
-0.2673,0.1953,0.9705,-2.3664,1.7863,-0.2061,0,0,0
-0.2607,0.1907,0.9744,-1.8473,1.5267,0.1374,0,0,0
-0.2629,0.1992,0.9763,-1.2748,2.1756,-0.374,0,0,0
-0.26,0.199,0.9714,-1.1603,2.7176,-0.5649,0,0,0
-0.2676,0.2021,0.9631,-1.8779,2.313,-0.8702,0,0,0
-0.2688,0.1909,0.9507,-2.3359,1.6947,-1.0687,0,0,0
-0.2698,0.1914,0.9558,-2.4198,0.6489,-0.2443,0,0,0
-0.271,0.1912,0.96,-2.9542,-0.4809,0.0305,0,0,0
-0.2571,0.198,0.9714,-3.5649,-0.5649,1.0153,0,0,0
-0.2612,0.1965,0.9719,-2.626,0.3053,0.8473,0,0,0
-0.2605,0.1965,0.9758,-2.5267,0.8015,0.4733,0,0,0
-0.2649,0.1934,0.978,-1.8168,1.2977,0.0305,0,0,0
-0.2695,0.2019,0.9768,-0.9237,1.0992,-0.3893,0,0,0
-0.2722,0.1973,0.9705,-1.3435,0.6641,-0.7939,0,0,0
-0.2744,0.1931,0.9661,-1.6412,0.1756,-0.5267,0,0,0
-0.27,0.1904,0.9756,-2.0687,0.2061,-0.6641,0,0,0
-0.2678,0.1941,0.9653,-2.6336,0.0229,-0.6794,0,0,0
-0.27,0.1956,0.9712,-3.1756,-0.3359,-0.5344,0,0,0
-0.2627,0.1892,0.978,-3.7023,0.0382,-0.5954,0,0,0
-0.2627,0.1931,0.9761,-3.3435,0.9847,-0.4351,0,0,0
-0.2627,0.1917,0.9788,-2.4504,1.4198,-0.5496,0,0,0
-0.2649,0.1897,0.9736,-1.0153,1.6947,-0.771,0,0,0
-0.2788,0.2034,0.9651,-0.9389,1.4809,-0.8168,0,0,0
-0.2773,0.2017,0.9534,-1.3359,0.0382,-1.0534,0,0,0
-0.2703,0.2004,0.9668,-1.7176,-0.8015,-0.7099,0,0,0
-0.2715,0.1951,0.9666,-2.0382,-0.8931,-0.3969,0,0,0
-0.2637,0.2017,0.9673,-2.6107,-0.7328,-0.5878,0,0,0
-0.2671,0.2009,0.9753,-3.2824,0.1221,-0.6031,0,0,0
-0.2715,0.1924,0.9722,-3.5344,0.7099,-0.9542,0,0,0
-0.2754,0.1936,0.9719,-2.6947,1.0916,-1.3359,0,0,0
-0.2781,0.1978,0.9646,-2.0382,0.2137,-1.3588,0,0,0
-0.2742,0.1882,0.9639,-1.9695,-1.0687,-1.3053,0,0,0
-0.2727,0.186,0.981,-1.7557,-0.6794,-1.1527,0,0,0
-0.2688,0.178,0.9797,-1.6718,-0.1527,-0.542,0,0,0
-0.2734,0.188,0.9795,-2.1832,-0.1603,-0.1221,0,0,0
-0.2698,0.1887,0.9788,-3.0382,0.0458,0.2443,0,0,0
-0.2781,0.1934,0.9768,-3.6183,0.458,-0.1832,0,0,0
-0.2703,0.1892,0.9741,-3.0229,0.5802,-0.4885,0,0,0
-0.2769,0.1875,0.9685,-2.8244,0.313,-0.5496,0,0,0
-0.2842,0.187,0.967,-2.145,-0.1221,-0.9466,0,0,0
-0.2778,0.1887,0.9626,-1.3969,-0.6412,-0.229,0,0,0
-0.2791,0.1929,0.9687,-1.2137,-1.1069,-0.6412,0,0,0
-0.2732,0.2012,0.9731,-2.1374,-0.8931,-0.7863,0,0,0
-0.2776,0.1951,0.9663,-2.916,-1.1374,-1.1069,0,0,0
-0.2722,0.1863,0.9792,-3.8702,-1.1374,-1.0458,0,0,0
-0.2686,0.1794,0.9773,-3.687,-0.6641,-0.2901,0,0,0
-0.269,0.1743,0.9819,-2.8168,-0.8168,0.5038,0,0,0
-0.27,0.1816,0.9883,-1.4962,-0.6489,0.7939,0,0,0
-0.2693,0.189,0.9836,-0.6412,0.0153,0.4198,0,0,0
-0.2676,0.1948,0.9846,-0.1603,0.1527,0.2977,0,0,0
-0.2673,0.2031,0.9878,-1.0153,0.5344,-0.1756,0,0,0
-0.2744,0.2019,0.9687,-2.313,0.9695,-0.2977,0,0,0
-0.2725,0.1965,0.9675,-3.4198,0.7023,-0.5573,0,0,0
-0.272,0.188,0.9697,-4.1527,0.3435,-0.8397,0,0,0
-0.271,0.177,0.968,-3.2748,0.0382,-0.3282,0,0,0
-0.2683,0.1785,0.9741,-2.4198,-0.0229,0.1603,0,0,0
-0.271,0.1812,0.9719,-1.9618,0.5191,0.0916,0,0,0
-0.2673,0.1855,0.9844,-2.1527,0.5802,-0.2595,0,0,0
-0.2664,0.1821,0.9854,-1.3817,0.8244,-0.1527,0,0,0
-0.2639,0.1873,0.9714,-0.9771,0.5573,-0.1221,0,0,0
-0.2666,0.1917,0.9709,-0.687,0.8397,-0.2595,0,0,0
-0.2625,0.1963,0.9851,-1.1985,1.3435,0.3053,0,0,0
-0.2646,0.2007,0.9788,-1.3893,1.6183,0.2366,0,0,0
-0.2676,0.1982,0.9771,-2.4962,1.8473,-0.2214,0,0,0
-0.2734,0.1953,0.9629,-2.8473,1.2595,0.0382,0,0,0
-0.2686,0.1902,0.9734,-2.5496,0.6183,-0.1298,0,0,0
-0.2776,0.1912,0.9656,-1.3969,0.5115,0.1221,0,0,0
-0.2795,0.1985,0.9653,0.0458,-0.374,0.313,0,0,0
-0.2761,0.1953,0.9741,1.2214,-0.2366,0.0534,0,0,0
-0.2773,0.2114,0.9712,1.6183,-0.2672,-0.2443,0,0,0
-0.2732,0.2048,0.9744,1.1985,0.3969,-1.0305,0,0,0
-0.2813,0.2046,0.9734,0.8168,1.0611,-0.7252,0,0,0
-0.2793,0.2078,0.9766,-0.0687,0.7176,-1.3893,0,0,0
-0.2849,0.1914,0.9722,-0.9084,0.2137,-1.2901,0,0,0
-0.2822,0.1907,0.9705,-0.1603,-0.1756,-0.7863,0,0,0
-0.2791,0.1953,0.9756,0.4809,0.0916,-0.8931,0,0,0
-0.2922,0.1973,0.9724,0.5954,-0.2672,-1.687,0,0,0
-0.2864,0.2046,0.9666,0.7786,0.5649,-1.9389,0,0,0
-0.2815,0.1975,0.9714,1.6183,-0.1527,-2.6031,0,0,0
-0.2861,0.1943,0.9646,1.3053,-0.1374,-2.7405,0,0,0
-0.2813,0.189,0.9597,0.8626,-0.0992,-2.2061,0,0,0
-0.2808,0.1829,0.9717,0.1908,-0.2824,-1.4809,0,0,0
-0.2778,0.1873,0.9746,0.3282,-0.4885,-0.5267,0,0,0
-0.2747,0.1875,0.9739,-0.4351,-0.2137,-0.626,0,0,0
-0.2693,0.1902,0.9714,-0.626,-0.4046,-0.7252,0,0,0
-0.2654,0.1909,0.9805,-1.2519,-0.2366,-0.5344,0,0,0
-0.2676,0.1863,0.9756,-2.0,0.3359,-0.7252,0,0,0
-0.27,0.177,0.9658,-1.8626,0.6412,-0.5802,0,0,0
-0.2715,0.1731,0.9612,-0.9466,0.6412,-0.0611,0,0,0
-0.2708,0.1792,0.9651,0.4275,0.3588,0.2901,0,0,0
-0.2703,0.1895,0.9529,0.5725,-0.5038,0.0687,0,0,0
-0.2673,0.2026,0.9519,-0.1298,-0.9924,0.3817,0,0,0
-0.2683,0.209,0.9441,-1.1221,-1.3817,0.3588,0,0,0
-0.2805,0.2283,0.9417,-2.4962,-2.1069,0.5573,0,0,0
-0.2761,0.2266,0.9292,-4.313,-3.7557,-0.0458,0,0,0
-0.2666,0.2136,0.9492,-4.9466,-5.0153,-0.5267,0,0,0
-0.2773,0.2139,0.9412,-4.4504,-4.8092,-1.0229,0,0,0
-0.2766,0.2102,0.9348,-3.771,-7.1374,-0.9237,0,0,0
-0.2678,0.1902,0.946,-3.1756,-8.7023,-0.7557,0,0,0
-0.2712,0.1938,0.9426,-1.8779,-9.7099,-0.855,0,0,0
-0.2712,0.1968,0.9519,-1.0,-10.0687,-0.1908,0,0,0
-0.2612,0.1917,0.9714,0.8168,-10.2366,0.2901,0,0,0
-0.2412,0.2056,0.9839,1.4427,-8.3893,0.4351,0,0,0
-0.2585,0.2097,0.9756,0.9695,-7.542,-0.1221,0,0,0
-0.2627,0.218,0.979,0.0992,-7.5954,-0.6489,0,0,0
-0.2529,0.2185,0.9807,-0.8779,-7.8168,-0.855,0,0,0
-0.2502,0.2014,0.9875,-1.4198,-7.229,-0.7099,0,0,0
-0.2417,0.2053,1.0056,-1.4198,-5.8855,-0.8702,0,0,0
-0.252,0.2144,1.0103,-1.0305,-4.1374,-0.6565,0,0,0
-0.2542,0.2153,0.9973,-0.8626,-2.7328,-1.2061,0,0,0
-0.2661,0.2083,1.0061,-0.1374,-1.6489,-1.7405,0,0,0
-0.2712,0.2146,1.0056,0.9924,-1.3206,-1.5954,0,0,0
-0.271,0.219,1.002,1.0916,-0.6565,-1.9542,0,0,0
-0.2739,0.2205,1.0007,0.4733,-0.2748,-2.5344,0,0,0
-0.2703,0.2187,1.0046,-0.0687,0.2977,-3.3817,0,0,0
-0.2681,0.2068,1.0093,-0.8397,1.1679,-3.4122,0,0,0
-0.2676,0.2009,1.0078,-0.5954,2.855,-3.2748,0,0,0
-0.2678,0.1882,1.019,-0.313,4.0382,-2.9313,0,0,0
-0.2449,0.188,1.0347,0.9466,6.145,-3.1527,0,0,0
-0.2654,0.1953,1.012,1.7863,8.374,-3.2824,0,0,0
-0.2605,0.1956,1.022,3.1145,9.4962,-3.6794,0,0,0
-0.2461,0.1968,1.0222,5.4733,12.8473,-4.2137,0,0,0
-0.2527,0.2163,1.0215,6.1221,16.9618,-4.9847,0,0,0
-0.2463,0.2253,1.0264,4.6947,22.7176,-6.6794,0,0,0
-0.2654,0.2417,1.0134,1.6718,29.4885,-8.3588,0,0,0
-0.2947,0.2102,0.9827,0.7405,31.1145,-8.7099,0,0,0
-0.3047,0.2002,0.9753,-0.7405,31.5802,-9.3817,0,0,0
-0.311,0.2068,0.98,0.3435,32.6718,-9.4427,0,0,0
-0.3145,0.1963,0.9788,1.9466,33.8015,-9.1985,0,0,0
-0.3042,0.2141,0.9648,1.9313,35.8321,-10.084,0,0,0
-0.2734,0.2456,0.967,1.2137,32.5267,-10.5573,0,0,0
-0.3396,0.1904,0.9294,4.9466,32.8015,-9.6489,0,0,0
-0.345,0.1543,0.9446,4.8931,32.626,-7.9618,0,0,0
-0.3374,0.1794,0.9385,4.1374,33.4809,-5.6947,0,0,0
-0.3596,0.186,0.9236,2.5115,31.5878,-4.6794,0,0,0
-0.3755,0.1794,0.9226,0.7023,31.5802,-4.9313,0,0,0
-0.3535,0.2136,0.8906,1.3053,31.9695,-4.5802,0,0,0
-0.3645,0.1733,0.9065,2.8473,28.5573,-5.229,0,0,0
-0.3884,0.1619,0.9119,5.1298,25.2137,-3.855,0,0,0
-0.3367,0.1699,0.9446,6.626,25.2748,-2.6794,0,0,0
-0.3271,0.2151,0.958,6.2214,27.1679,-2.3282,0,0,0
-0.3308,0.1931,0.9607,6.2595,26.2137,-2.8244,0,0,0
-0.3362,0.2083,0.9409,4.7939,29.9618,-1.9847,0,0,0
-0.3789,0.2124,0.917,4.3206,27.2824,-1.8855,0,0,0
-0.3689,0.2253,0.9226,3.5496,26.3282,-1.2214,0,0,0
-0.394,0.2246,0.9077,3.6336,25.8931,-0.7557,0,0,0
-0.4104,0.2083,0.9001,5.2595,23.7099,0.0992,0,0,0
-0.4023,0.207,0.916,6.1679,21.8702,1.2748,0,0,0
-0.3979,0.2512,0.9048,6.2748,21.2901,1.2137,0,0,0
-0.4302,0.2268,0.8721,4.5191,21.4198,0.9466,0,0,0
-0.4143,0.2144,0.8845,4.145,16.2748,1.4122,0,0,0
-0.4136,0.2202,0.873,4.458,14.7252,2.6947,0,0,0
-0.426,0.2195,0.8728,5.458,11.1832,3.1985,0,0,0
-0.4434,0.2356,0.8745,5.4885,7.6183,3.8626,0,0,0
-0.4148,0.2439,0.877,5.4351,5.2214,4.145,0,0,0
-0.4148,0.2346,0.897,6.9466,4.9466,2.5573,0,0,0
-0.4365,0.2339,0.8354,8.2977,2.9542,1.3664,0,0,0
-0.3943,0.2034,0.915,13.2672,5.3435,-1.0229,0,0,0
-0.4482,0.2717,0.8494,9.5038,2.229,-1.8855,0,0,0
-0.4119,0.218,0.845,8.8244,-0.4809,-0.9618,0,0,0
-0.4238,0.2271,0.8738,8.9542,-3.3817,1.4275,0,0,0
-0.4028,0.2583,0.8816,7.542,-3.5878,1.8397,0,0,0
-0.3994,0.2705,0.8896,4.084,-2.9008,0.9237,0,0,0
-0.4023,0.2673,0.8855,0.0534,-1.9008,0.2672,0,0,0
-0.4041,0.2549,0.8918,-2.4733,-2.5573,-0.5573,0,0,0
-0.4097,0.248,0.8984,-3.8321,-2.6412,-0.2595,0,0,0
-0.3977,0.2539,0.9001,-4.7252,-2.7557,-0.1603,0,0,0
-0.395,0.249,0.9114,-5.7481,-1.8168,-0.7328,0,0,0
-0.3982,0.2573,0.9209,-6.7863,0.3588,-1.542,0,0,0
-0.4043,0.2556,0.9077,-8.4351,0.9618,-1.0382,0,0,0
-0.4043,0.2522,0.9253,-9.1679,2.3817,-2.1527,0,0,0
-0.397,0.2205,0.8904,-6.6641,4.0534,-1.2901,0,0,0
-0.4412,0.2104,0.8455,-3.9466,3.1603,-0.3435,0,0,0
-0.4775,0.2612,0.8713,-6.458,-3.2672,-0.2214,0,0,0
-0.4304,0.2563,0.8918,-8.1069,-5.2977,-0.4046,0,0,0
-0.417,0.2285,0.8967,-8.6718,-4.916,-0.5954,0,0,0
-0.4314,0.2227,0.8989,-8.2443,-5.4809,-0.0305,0,0,0
-0.4177,0.2209,0.9238,-6.1603,-5.1756,0.8244,0,0,0
-0.4204,0.2356,0.9199,-3.7863,-3.8473,1.0076,0,0,0
-0.427,0.229,0.9131,-2.7405,-4.0611,1.3435,0,0,0
-0.4382,0.228,0.9038,-1.6489,-4.7786,1.6794,0,0,0
-0.4175,0.2341,0.9167,-1.5573,-5.3588,1.7786,0,0,0
-0.4158,0.239,0.9226,-1.8626,-4.8855,1.8244,0,0,0
-0.4204,0.2415,0.9177,-2.6947,-4.084,1.5038,0,0,0
-0.3479,0.2974,0.9294,-3.4885,-5.7252,2.0153,0,0,0
-0.4316,0.2305,0.8918,-4.0611,-5.145,1.8779,0,0,0
-0.4136,0.2063,0.9211,-4.1832,-5.4046,1.5649,0,0,0
-0.4197,0.2087,0.9211,-3.1527,-2.9237,1.687,0,0,0
-0.4114,0.2212,0.9204,-2.2748,-2.5954,1.687,0,0,0
-0.4109,0.2229,0.9197,-2.5802,-1.9695,1.3359,0,0,0
-0.4038,0.2144,0.9194,-1.7481,-1.5496,0.9084,0,0,0
-0.4077,0.2107,0.9238,-0.5573,-0.7176,1.7252,0,0,0
-0.4097,0.2349,0.926,-0.4275,-0.3435,1.9542,0,0,0
-0.4089,0.2371,0.9319,-1.1221,0.3588,1.9695,0,0,0
-0.4148,0.2402,0.9282,-1.1374,1.6947,1.4962,0,0,0
-0.4111,0.2368,0.9219,-1.3588,1.8473,1.5191,0,0,0
-0.4055,0.2441,0.9238,-1.0534,2.4656,1.4275,0,0,0
-0.4121,0.2458,0.9243,-1.2901,3.9008,0.3588,0,0,0
-0.4214,0.2468,0.9272,-0.5725,4.6718,-0.4046,0,0,0
-0.4104,0.2515,0.9377,-0.6947,5.7634,-0.0916,0,0,0
-0.4033,0.2524,0.9336,-0.2824,8.1527,-0.4656,0,0,0
-0.4082,0.2456,0.9248,-1.0534,9.6794,-0.8931,0,0,0
-0.387,0.2229,0.9163,1.5725,13.626,-3.7023,0,0,0
-0.45,0.2761,0.9197,-0.6336,14.5267,-3.8092,0,0,0
-0.4236,0.2358,0.9077,-1.0687,13.5038,-3.1221,0,0,0
-0.4336,0.2295,0.9104,0.5573,14.229,-4.3206,0,0,0
-0.3755,0.2505,0.9229,1.4504,14.9924,-3.6489,0,0,0
-0.4226,0.2385,0.9031,0.3511,17.626,-5.3588,0,0,0
-0.4458,0.2371,0.8701,-0.9008,15.1221,-4.9008,0,0,0
-0.4263,0.2441,0.8635,-2.374,11.1374,-4.6794,0,0,0
-0.4441,0.2397,0.8584,-4.2366,8.8168,-4.5725,0,0,0
-0.4414,0.2329,0.8625,-5.0534,6.2824,-4.4733,0,0,0
-0.4226,0.2429,0.8696,-6.3588,5.5725,-3.0458,0,0,0
-0.4233,0.2329,0.8674,-8.0916,3.0763,-1.7328,0,0,0
-0.4299,0.2134,0.8684,-9.0382,0.542,1.0229,0,0,0
-0.4185,0.2007,0.865,-5.7252,1.8473,1.5649,0,0,0
-0.4468,0.2148,0.8638,-1.9618,0.1145,1.5191,0,0,0
-0.4592,0.2366,0.876,-2.5344,-1.6489,1.4656,0,0,0
-0.4539,0.2446,0.8787,-3.8321,-2.4809,0.3206,0,0,0
-0.4492,0.2251,0.8752,-3.6183,-3.6794,0.1985,0,0,0
-0.4495,0.219,0.8865,-2.6412,-4.1374,0.4504,0,0,0
-0.4438,0.2292,0.8923,-2.0382,-4.2977,1.3282,0,0,0
-0.4417,0.2432,0.8887,-3.084,-4.6031,1.229,0,0,0
-0.4434,0.2468,0.8843,-5.1145,-5.1908,0.4885,0,0,0
-0.4421,0.2329,0.885,-6.1603,-4.8855,-0.0992,0,0,0
-0.437,0.2263,0.8918,-6.8015,-4.6718,-0.2519,0,0,0
-0.4329,0.2212,0.9028,-6.3206,-3.6489,0.3282,0,0,0
-0.4321,0.2292,0.9089,-6.4656,-3.229,0.1832,0,0,0
-0.4353,0.2341,0.9202,-7.5725,-2.6947,-0.4809,0,0,0
-0.429,0.2278,0.9204,-8.5191,-1.9618,-0.7863,0,0,0
-0.4446,0.2317,0.8999,-10.2595,-1.2061,-0.145,0,0,0
-0.4409,0.2302,0.9087,-11.9313,-1.229,-0.9466,0,0,0
-0.4414,0.2253,0.9084,-14.0153,-1.7939,-0.9695,0,0,0
-0.4436,0.2329,0.9043,-15.4504,-1.8931,-0.8244,0,0,0
-0.436,0.2463,0.8958,-17.9008,-1.8473,-2.3359,0,0,0
-0.4338,0.2378,0.9038,-21.084,-1.687,-3.6031,0,0,0
-0.4319,0.2354,0.9143,-23.6641,-0.8397,-3.4656,0,0,0
-0.4231,0.2363,0.9043,-27.2214,-0.5954,-4.4427,0,0,0
-0.4397,0.2053,0.9128,-28.7634,-0.626,-4.6183,0,0,0
-0.4478,0.1938,0.9136,-27.8855,-0.9084,-4.7939,0,0,0
-0.4465,0.1846,0.9199,-26.8168,-1.3359,-4.6107,0,0,0
-0.4351,0.177,0.9253,-24.4122,-1.0,-3.9313,0,0,0
-0.4231,0.1445,0.9397,-20.9466,0.0,-2.9618,0,0,0
-0.4207,0.1243,0.9426,-15.1298,2.3817,-1.2672,0,0,0
-0.4243,0.1238,0.9456,-7.3511,4.8015,0.2366,0,0,0
-0.4382,0.1287,0.9412,-2.0611,5.9771,1.0992,0,0,0
-0.4438,0.1506,0.9395,1.5344,6.7481,1.7939,0,0,0
-0.4443,0.1567,0.9392,3.0534,8.5573,2.2977,0,0,0
-0.448,0.1755,0.9331,3.4275,9.2366,3.3282,0,0,0
-0.4414,0.1936,0.9263,2.1527,10.1145,3.0687,0,0,0
-0.3669,0.2063,0.9668,-0.0076,15.0916,2.5649,0,0,0
-0.4707,0.1919,0.9197,0.4198,10.1908,2.1908,0,0,0
-0.4458,0.1951,0.9402,0.771,13.8168,0.374,0,0,0
-0.4443,0.1836,0.9226,2.3435,16.2443,0.2519,0,0,0
-0.4746,0.1609,0.8906,3.9084,15.1298,0.8092,0,0,0
-0.4539,0.1807,0.8994,5.0382,15.3588,0.2672,0,0,0
-0.3955,0.1926,0.8926,5.8473,17.3969,-1.9237,0,0,0
-0.4446,0.2441,0.9414,3.4962,17.6947,-3.7023,0,0,0
-0.4778,0.2065,0.8655,2.5115,15.7863,-4.8473,0,0,0
-0.4697,0.1821,0.8521,0.5191,12.084,-4.8321,0,0,0
-0.4705,0.1782,0.8411,1.3511,9.4962,-4.5344,0,0,0
-0.4722,0.1958,0.8391,1.4504,6.6031,-4.7176,0,0,0
-0.4585,0.1921,0.8389,0.6794,4.3435,-4.5344,0,0,0
-0.4595,0.1965,0.8437,-0.0458,2.2824,-3.3588,0,0,0
-0.4524,0.1802,0.8489,0.7481,1.542,-3.0458,0,0,0
-0.4558,0.176,0.8435,2.0153,0.5573,-1.7863,0,0,0
-0.4502,0.1819,0.8501,2.8092,-0.4809,-0.0992,0,0,0
-0.4434,0.2051,0.8652,1.4122,-1.3511,1.0534,0,0,0
-0.4355,0.2107,0.8735,-1.6489,-2.1832,2.4046,0,0,0
-0.446,0.1997,0.8853,-3.3053,-2.2748,3.1679,0,0,0
-0.2471,0.2549,0.9353,-4.7634,2.9542,4.4198,0,0,0
-0.5144,0.1951,0.8689,-4.7023,1.0992,3.6565,0,0,0
-0.467,0.2075,0.8794,-5.0229,0.916,1.0763,0,0,0
-0.4739,0.1963,0.8789,-5.6183,0.4427,0.5573,0,0,0
-0.4749,0.1943,0.8796,-5.4656,-1.2977,-0.6107,0,0,0
-0.4653,0.1887,0.8799,-3.916,-1.771,-0.9084,0,0,0
-0.4675,0.1936,0.8845,-2.7481,-2.1756,-1.1679,0,0,0
-0.4678,0.1892,0.8757,-2.4122,-3.0153,-1.1756,0,0,0
-0.4695,0.1919,0.8816,-2.3664,-3.4275,-1.1832,0,0,0
-0.4651,0.1863,0.896,-1.7939,-4.0,-0.9389,0,0,0
-0.4666,0.1917,0.8816,-1.687,-4.3664,-0.5802,0,0,0
-0.4597,0.189,0.8904,-1.5954,-4.0992,-0.3817,0,0,0
-0.4719,0.1921,0.8909,-1.229,-4.1221,-0.1908,0,0,0
-0.4722,0.1926,0.8982,-1.6412,-3.9313,-0.2137,0,0,0
-0.4739,0.1982,0.895,-1.6107,-3.6031,-0.5038,0,0,0
-0.4722,0.1951,0.8967,-1.8244,-3.0916,-0.4122,0,0,0
-0.4751,0.1978,0.895,-2.0763,-2.5954,-0.4504,0,0,0
-0.4807,0.1938,0.9004,-2.2137,-2.1679,-0.771,0,0,0
-0.4829,0.1863,0.8945,-2.2748,-2.145,-0.5115,0,0,0
-0.4768,0.1858,0.9138,-2.6107,-2.2061,-0.7023,0,0,0
-0.469,0.1785,0.9136,-2.3206,-1.4275,-0.9084,0,0,0
-0.4695,0.178,0.9187,-2.2061,-0.6794,-0.5115,0,0,0
-0.48,0.1838,0.9243,-2.0534,-0.0611,-0.7557,0,0,0
-0.4819,0.1812,0.9211,-1.8473,1.4198,-0.4733,0,0,0
-0.4805,0.1797,0.9155,-1.9084,1.5649,-0.0458,0,0,0
-0.4812,0.1755,0.9109,-1.7863,1.8244,0.4656,0,0,0
-0.4761,0.1833,0.9165,-1.145,2.7939,0.4122,0,0,0
-0.4751,0.1907,0.9021,-2.0534,3.4275,-0.1069,0,0,0
-0.4751,0.1833,0.894,-2.7099,3.6718,-0.5496,0,0,0
-0.4717,0.1877,0.8958,-3.0,3.4733,-0.3511,0,0,0
-0.4705,0.1924,0.894,-3.6489,4.0229,-0.9466,0,0,0
-0.4604,0.1963,0.8982,-5.7176,4.2519,-1.3817,0,0,0
-0.5261,0.1841,0.8838,-9.0611,9.4733,-1.3053,0,0,0
-0.4595,0.1843,0.9089,-8.5802,6.8321,-1.5115,0,0,0
-0.4756,0.1877,0.8958,-8.6947,7.8168,-1.8931,0,0,0
-0.481,0.1885,0.8884,-8.8779,6.6489,-2.4504,0,0,0
-0.4731,0.199,0.8831,-9.2137,6.542,-2.1527,0,0,0
-0.4724,0.1907,0.8892,-10.3282,5.9237,-2.7176,0,0,0
-0.4697,0.1816,0.8967,-11.0611,6.9313,-2.542,0,0,0
-0.4819,0.1768,0.8752,-11.0076,6.1145,-2.4733,0,0,0
-0.4863,0.179,0.8816,-11.2443,5.7786,-2.7863,0,0,0
-0.4902,0.175,0.8735,-10.6412,5.3435,-3.1603,0,0,0
-0.4924,0.1677,0.8784,-9.7405,4.5649,-3.2672,0,0,0
-0.4871,0.187,0.8892,-11.2061,4.145,-3.3282,0,0,0
-0.4744,0.1399,0.9092,-8.9542,5.5344,-2.0076,0,0,0
-0.4883,0.1296,0.9021,-4.6947,8.1145,-0.4275,0,0,0
-0.4893,0.1472,0.894,-0.5267,8.3664,0.2519,0,0,0
-0.4871,0.1519,0.9006,2.4198,8.8321,0.6947,0,0,0
-0.4827,0.1643,0.9021,3.8397,9.7099,1.0763,0,0,0
-0.5012,0.1763,0.9006,3.5267,10.0153,1.5725,0,0,0
-0.5015,0.1853,0.8943,2.0763,11.4656,1.9695,0,0,0
-0.5093,0.1992,0.8979,1.1298,10.5649,1.7939,0,0,0
-0.5181,0.1794,0.8892,0.6718,11.2748,0.0992,0,0,0
-0.502,0.1794,0.885,-0.4275,11.9237,-0.5802,0,0,0
-0.5068,0.1787,0.8787,-0.5344,11.4198,-0.7405,0,0,0
-0.4983,0.1638,0.8853,0.5725,11.313,-0.4885,0,0,0
-0.502,0.165,0.8833,2.2901,12.4809,-0.458,0,0,0
-0.5076,0.1682,0.875,4.2061,11.5954,-0.3893,0,0,0
-0.519,0.176,0.8584,3.8931,10.626,-0.4656,0,0,0
-0.5024,0.1865,0.8555,2.2443,10.687,-0.0687,0,0,0
-0.5056,0.1821,0.8518,0.5649,9.2519,0.2824,0,0,0
-0.502,0.1707,0.8525,-0.5802,9.4656,0.1221,0,0,0
-0.5215,0.1643,0.842,-0.0534,8.7023,0.0305,0,0,0
-0.5115,0.1746,0.8538,0.3511,8.0458,0.3817,0,0,0
-0.4961,0.1699,0.8579,0.7557,8.229,-0.5878,0,0,0
-0.5203,0.166,0.8638,1.7481,9.8397,-0.4504,0,0,0
-0.5059,0.1714,0.8616,3.5115,10.313,-0.687,0,0,0
-0.5203,0.1868,0.8618,3.7634,10.2672,-0.0687,0,0,0
-0.5227,0.1875,0.845,3.626,9.0382,0.1832,0,0,0
-0.5234,0.1865,0.8452,3.3359,8.0916,0.084,0,0,0
-0.5042,0.1907,0.8499,2.3588,8.0153,0.084,0,0,0
-0.5215,0.178,0.8489,1.9695,8.374,-0.0534,0,0,0
-0.5193,0.1782,0.854,1.3511,8.4885,-0.1603,0,0,0
-0.52,0.177,0.8601,1.229,9.4809,-0.8168,0,0,0
-0.5105,0.1851,0.8562,1.8092,11.8321,-1.3282,0,0,0
-0.5242,0.1726,0.8604,1.8244,13.6412,-1.1679,0,0,0
-0.5205,0.1675,0.8662,4.542,13.6947,-1.0,0,0,0
-0.5139,0.1543,0.8965,6.4351,15.6641,-0.0992,0,0,0
-0.4895,0.1777,0.9116,8.4504,18.542,0.0992,0,0,0
-0.5134,0.1863,0.9016,9.1908,23.4656,-1.2214,0,0,0
-0.5647,0.1956,0.8667,9.1603,27.0763,-1.4885,0,0,0
-0.5652,0.2371,0.8562,9.7557,28.0153,-2.3435,0,0,0
-0.5659,0.1816,0.8618,10.1603,26.4809,-3.5115,0,0,0
-0.5627,0.1707,0.8643,9.0153,25.8855,-1.4504,0,0,0
-0.572,0.186,0.842,8.7557,26.1298,-2.1832,0,0,0
-0.5322,0.197,0.8611,5.5115,27.5038,-1.5878,0,0,0
-0.5652,0.2065,0.8459,4.145,28.9618,-2.1908,0,0,0
-0.5681,0.2012,0.833,3.4809,30.9771,-3.6183,0,0,0
-0.5676,0.2222,0.8228,4.3435,30.4122,-3.6336,0,0,0
-0.5393,0.1692,0.8533,4.7176,37.4809,0.687,0,0,0
-0.5852,0.1738,0.8245,9.145,32.5573,-3.1298,0,0,0
-0.593,0.2415,0.7827,12.5573,35.542,-2.6107,0,0,0
-0.6455,0.2063,0.7976,9.7939,33.6183,-4.3206,0,0,0
-0.6956,0.1924,0.8184,4.5267,36.1679,-5.0076,0,0,0
-0.6963,0.2927,0.7236,3.1756,28.8931,-5.0763,0,0,0
-0.6399,0.145,0.7791,5.3817,27.9847,-7.313,0,0,0
-0.665,0.2251,0.7214,4.771,27.8626,-6.1985,0,0,0
-0.627,0.2156,0.7373,4.4122,22.5191,-5.6947,0,0,0
-0.6233,0.1648,0.7495,6.3969,18.1527,-4.8702,0,0,0
-0.6267,0.1343,0.6792,10.8015,19.5191,-6.6107,0,0,0
-0.6553,0.2327,0.7034,4.7023,12.4275,-4.7176,0,0,0
-0.6201,0.2195,0.7144,2.8855,8.9924,-3.8244,0,0,0
-0.6233,0.2014,0.7112,0.4504,6.7328,-2.6107,0,0,0
-0.6208,0.2158,0.7158,-0.916,4.6489,-1.4809,0,0,0
-0.6235,0.2085,0.7285,-0.8855,3.0534,-2.6031,0,0,0
-0.6211,0.2031,0.7227,-0.3969,1.2214,-1.458,0,0,0
-0.6172,0.2153,0.7361,-0.7252,-0.229,-0.3664,0,0,0
-0.6172,0.2209,0.7393,-1.1374,-0.8321,-0.8244,0,0,0
-0.6221,0.2139,0.7434,-1.3359,-1.9008,0.145,0,0,0
-0.6306,0.2207,0.7366,-2.2672,-4.3664,0.7328,0,0,0
-0.6372,0.2249,0.7283,-3.1527,-6.855,1.3511,0,0,0
-0.6323,0.2241,0.7446,-4.7328,-9.3359,2.1679,0,0,0
-0.606,0.2327,0.7605,-5.8015,-6.8092,1.2748,0,0,0
-0.6184,0.1743,0.7397,-4.0382,-5.0611,0.9771,0,0,0
-0.6638,0.188,0.7429,-3.5573,-6.9466,2.8702,0,0,0
-0.6147,0.2322,0.7871,-5.0611,-5.7939,3.0,0,0,0
-0.6167,0.217,0.78,-4.8931,-2.8015,0.9313,0,0,0
-0.6387,0.1958,0.7729,-3.9695,-2.7481,0.5496,0,0,0
-0.6309,0.2036,0.7876,-3.0305,-3.3664,1.084,0,0,0
-0.624,0.2141,0.7935,-2.6718,-1.8702,0.7786,0,0,0
-0.6299,0.2119,0.7791,-2.6794,-1.3282,0.8473,0,0,0
-0.6426,0.2131,0.7771,-2.4733,-1.1221,0.313,0,0,0
-0.6436,0.2183,0.7751,-3.4046,-1.2443,0.0229,0,0,0
-0.6355,0.2253,0.7844,-5.0534,-0.4733,-0.6412,0,0,0
-0.6426,0.2187,0.7876,-6.3664,0.3511,-1.0687,0,0,0
-0.6353,0.2175,0.7859,-7.8321,0.7557,-0.8397,0,0,0
-0.6431,0.2192,0.7827,-7.8626,1.4427,-1.2901,0,0,0
-0.6526,0.217,0.7766,-7.771,1.4885,-2.3282,0,0,0
-0.6492,0.2244,0.7764,-7.4962,1.1985,-3.2443,0,0,0
-0.6499,0.2253,0.7749,-7.0687,0.9542,-3.8779,0,0,0
-0.6377,0.2158,0.7803,-7.2366,0.9924,-4.9084,0,0,0
-0.644,0.2058,0.7979,-6.7634,2.3664,-5.7557,0,0,0
-0.6772,0.2166,0.75,-6.3206,0.2595,-4.8321,0,0,0
-0.626,0.1772,0.8047,-2.229,4.4427,-7.3359,0,0,0
-0.6228,0.1934,0.7725,-2.6489,3.2519,-6.3053,0,0,0
-0.645,0.1599,0.7598,-1.0153,3.0076,-5.8244,0,0,0
-0.6418,0.1699,0.7644,0.6107,2.1679,-3.542,0,0,0
-0.6211,0.1833,0.7837,1.5267,3.2137,-3.2443,0,0,0
-0.6216,0.1926,0.7922,1.8779,4.5191,-2.542,0,0,0
-0.5625,0.1663,0.8171,3.626,3.7939,-3.2137,0,0,0
-0.6313,0.2085,0.7656,1.7863,3.8855,-2.2061,0,0,0
-0.6416,0.2014,0.7361,1.8168,3.3435,-2.6565,0,0,0
-0.6396,0.2075,0.7402,1.0229,2.313,-1.687,0,0,0
-0.6321,0.2158,0.7373,0.2443,1.1527,-1.8015,0,0,0
-0.6406,0.2114,0.739,-0.1221,0.2061,-2.4122,0,0,0
-0.6431,0.2061,0.7356,0.1298,-1.0534,-1.7786,0,0,0
-0.6416,0.2036,0.7314,0.7023,-3.084,-1.2824,0,0,0
-0.6411,0.2136,0.7285,0.7481,-4.7786,-0.5115,0,0,0
-0.6272,0.2214,0.7432,-0.7786,-6.4656,0.229,0,0,0
-0.6265,0.2124,0.75,-0.9313,-5.6336,-0.229,0,0,0
-0.6257,0.2187,0.7524,-1.916,-5.4733,-0.6031,0,0,0
-0.634,0.2302,0.7485,-4.1145,-5.6107,-1.1985,0,0,0
-0.634,0.2334,0.7532,-7.7176,-7.4504,-1.5267,0,0,0
-0.6279,0.2007,0.7583,-8.9084,-8.9771,-0.6794,0,0,0
-0.623,0.1641,0.7485,-5.2061,-8.1908,-1.8244,0,0,0
-0.6526,0.1414,0.7539,-1.2748,-8.7481,1.8321,0,0,0
-0.6189,0.2053,0.8154,-2.8702,-8.5573,2.2748,0,0,0
-0.6335,0.219,0.7986,-3.5038,-4.1679,-1.0534,0,0,0
-0.6218,0.1953,0.7913,-4.8321,-4.5267,-1.7176,0,0,0
-0.6401,0.1895,0.7827,-5.2748,-5.1298,-2.8092,0,0,0
-0.6208,0.1914,0.802,-5.2061,-4.4656,-3.1145,0,0,0
-0.6304,0.2,0.7849,-5.1756,-3.2214,-3.3053,0,0,0
-0.6479,0.1873,0.7852,-4.1832,-3.6947,-3.5573,0,0,0
-0.6414,0.1929,0.7905,-3.9466,-4.4427,-3.1374,0,0,0
-0.6248,0.176,0.783,-1.8855,-3.6336,-2.8092,0,0,0
-0.6836,0.2056,0.7349,-1.6412,-8.7481,-0.145,0,0,0
-0.625,0.1365,0.8503,7.0,-5.1756,-2.9542,0,0,0
-0.6116,0.2339,0.7988,4.6641,-5.7023,-1.9237,0,0,0
-0.6079,0.2205,0.7866,1.4427,-3.8244,-3.6107,0,0,0
-0.6292,0.2329,0.7881,-1.6565,-3.4122,-4.4427,0,0,0
-0.6199,0.2334,0.7876,-3.4351,-3.4198,-5.5344,0,0,0
-0.6306,0.2334,0.7869,-4.6489,-2.9924,-5.9237,0,0,0
-0.6377,0.2463,0.7781,-7.0382,-3.6031,-6.9084,0,0,0
-0.6299,0.2415,0.7766,-10.2824,-5.3206,-6.2443,0,0,0
-0.6155,0.241,0.7869,-13.7252,-5.5038,-5.9924,0,0,0
-0.6182,0.2458,0.7871,-16.8015,-5.6107,-6.1298,0,0,0
-0.614,0.2356,0.7764,-22.145,-7.2824,-3.8397,0,0,0
-0.6272,0.248,0.7512,-25.9084,-9.9618,-3.1221,0,0,0
-0.6084,0.2202,0.751,-29.5573,-15.0,-3.6031,0,0,0
-0.625,0.2549,0.709,-32.771,-16.229,-9.9008,0,0,0
-0.7263,0.2559,0.6086,-35.5191,-22.8931,-8.3664,0,0,0
-0.6016,0.1321,0.6567,-39.1069,-30.9313,-11.1679,0,0,0
-0.5249,0.1672,0.7227,-42.1985,-49.626,-10.2748,0,0,0
-0.6545,0.0701,0.7097,-41.458,-48.0763,-8.9466,0,0,0
-0.501,0.0454,0.7678,-33.9389,-42.3969,-7.8702,0,0,0
-0.5073,0.0344,0.7893,-24.4427,-40.5267,-4.6183,0,0,0
-0.552,0.0334,0.7695,-14.084,-37.229,-1.4122,0,0,0
-0.4978,0.0615,0.8259,-9.229,-32.916,2.145,0,0,0
-0.5603,0.0581,0.7876,-5.8321,-29.771,3.1221,0,0,0
-0.5806,0.0574,0.7581,-2.7786,-28.542,4.9847,0,0,0
-0.5308,0.0696,0.8093,-0.6183,-31.0534,5.6336,0,0,0
-0.5757,0.0681,0.7881,-3.7176,-30.1985,5.9847,0,0,0
-0.5474,0.0906,0.8035,-8.5038,-29.7023,5.6489,0,0,0
-0.5471,0.0896,0.7959,-10.6794,-34.5878,7.229,0,0,0
-0.5771,0.0278,0.8054,-11.6107,-35.4275,8.8168,0,0,0
-0.5752,0.0503,0.8005,-11.8321,-40.3588,11.2595,0,0,0
-0.5435,0.043,0.8494,-13.1756,-39.8473,14.0229,0,0,0
-0.564,0.0901,0.8101,-13.6412,-42.4427,15.9771,0,0,0
-0.4749,0.1228,0.8708,-15.9313,-43.9389,17.3817,0,0,0
-0.5586,0.0654,0.8525,-15.4733,-48.7252,16.6183,0,0,0
-0.521,0.0859,0.8638,-16.7023,-47.8321,17.4351,0,0,0
-0.481,0.1194,0.8887,-17.6412,-48.687,16.3435,0,0,0
-0.4639,0.1023,0.8787,-18.771,-49.1374,16.7328,0,0,0
-0.5571,0.1167,0.8647,-21.5878,-51.8244,13.8244,0,0,0
-0.4243,0.1194,0.9153,-24.6412,-54.7557,16.1832,0,0,0
-0.4224,0.1025,0.9609,-27.6641,-53.8168,16.5878,0,0,0
-0.3975,0.1099,0.9812,-29.4198,-49.2748,20.6794,0,0,0
-0.3818,0.0942,1.0125,-31.6641,-43.2824,21.9313,0,0,0
-0.3806,0.0793,1.0049,-31.5496,-37.2214,21.458,0,0,0
-0.387,0.0601,0.9995,-27.4962,-31.1069,20.6412,0,0,0
-0.3831,0.0435,1.01,-21.0534,-26.0534,21.0229,0,0,0
-0.3926,0.061,1.0066,-14.6641,-21.1679,21.1908,0,0,0
-0.3809,0.0715,0.9951,-10.6031,-16.3511,21.7252,0,0,0
-0.3997,0.0757,0.9883,-7.9924,-13.7481,22.4733,0,0,0
-0.4058,0.0691,0.9912,-6.0458,-12.313,23.0458,0,0,0
-0.4087,0.0857,0.9854,-6.374,-10.9771,23.1756,0,0,0
-0.4058,0.0972,0.9849,-6.9695,-11.3359,24.5114,0,0,0
-0.3999,0.1035,0.9883,-9.2214,-10.5802,24.2672,0,0,0
-0.3818,0.1133,1.0029,-12.4504,-9.3282,24.0763,0,0,0
-0.3777,0.1104,1.0012,-15.5344,-7.6489,24.084,0,0,0
-0.3784,0.1067,1.0046,-17.2137,-5.3435,24.0076,0,0,0
-0.3813,0.0947,0.9998,-17.3053,-4.7481,24.3206,0,0,0
-0.3853,0.0913,1.0144,-15.2366,-3.6336,24.687,0,0,0
-0.3835,0.0898,1.0295,-10.5649,-0.8855,25.6489,0,0,0
-0.3894,0.0903,1.0149,-5.4809,0.8855,25.5725,0,0,0
-0.3816,0.1208,1.0222,-2.3969,3.2061,25.084,0,0,0
-0.3945,0.1448,1.0164,-1.2137,5.2672,23.7557,0,0,0
-0.3853,0.1555,1.0107,-1.1603,7.3969,22.7557,0,0,0
-0.3787,0.1597,1.0173,-1.5267,9.0992,22.1374,0,0,0
-0.3894,0.1746,0.9951,-2.7634,11.313,20.8855,0,0,0
-0.3914,0.1697,0.9861,-4.9542,12.3511,19.5725,0,0,0
-0.4082,0.1826,0.9609,-7.542,11.8397,18.2901,0,0,0
-0.395,0.1541,0.9673,-10.6183,9.8397,17.4656,0,0,0
-0.4067,0.1582,0.9719,-11.4122,8.8015,17.542,0,0,0
-0.3914,0.1426,0.9727,-9.8779,9.2595,16.1527,0,0,0
-0.3906,0.1387,0.9438,-8.1756,11.1145,13.8626,0,0,0
-0.4089,0.1404,0.9316,-6.4809,9.374,12.4427,0,0,0
-0.4148,0.1265,0.9236,-5.0534,8.4351,10.3969,0,0,0
-0.4202,0.1292,0.8975,-3.8015,6.6336,10.0458,0,0,0
-0.4111,0.1252,0.9028,-1.9618,4.5573,9.4275,0,0,0
-0.4036,0.1318,0.9126,-1.7634,3.0534,9.0076,0,0,0
-0.3977,0.124,0.916,-1.9389,3.8855,9.1832,0,0,0
-0.3997,0.1292,0.9065,-1.0,3.687,8.2824,0,0,0
-0.4023,0.1338,0.896,-1.0382,2.7786,7.855,0,0,0
-0.4097,0.1313,0.8848,-1.4962,1.6107,7.2672,0,0,0
-0.3938,0.1372,0.9036,-1.626,-0.6641,7.5038,0,0,0
-0.4014,0.1343,0.8928,-0.7863,-1.6565,7.2977,0,0,0
-0.405,0.1382,0.8928,0.8702,-3.0305,7.2366,0,0,0
-0.3894,0.2344,0.8494,0.4046,-9.1756,3.3969,0,0,0
-0.3872,0.1499,0.9094,-1.8168,-4.0763,4.687,0,0,0
-0.4255,0.0159,0.948,-0.7786,-7.5802,3.0763,0,0,0
-0.3999,0.1372,0.916,-0.6718,-4.084,2.7557,0,0,0
-0.4189,0.1287,0.9304,0.1985,-5.2214,3.1527,0,0,0
-0.4041,0.1399,0.9382,-0.313,-3.9389,3.4275,0,0,0
-0.4041,0.1147,0.9329,-0.1221,-3.0,4.0229,0,0,0
-0.3716,0.1311,0.9551,3.3969,-1.2672,7.3969,0,0,0
-0.4236,0.0581,0.968,2.8855,-5.2901,-2.1985,0,0,0
-0.4607,0.0605,0.9253,2.2137,-3.7023,2.1832,0,0,0
-0.4211,0.1323,0.9463,3.8321,-1.0916,1.6336,0,0,0
-0.4236,0.1465,0.9348,1.6947,-2.0382,0.687,0,0,0
-0.4229,0.1255,0.9451,-0.4122,-1.542,0.6489,0,0,0
-0.4226,0.1292,0.9368,-1.5344,-0.5267,0.3664,0,0,0
-0.4177,0.0818,0.9346,0.2748,-1.3893,0.7786,0,0,0
-0.4033,0.0627,0.9304,4.9695,-1.5267,0.2977,0,0,0
-0.4175,0.0549,0.9268,11.2137,-2.5038,2.0687,0,0,0
-0.4009,0.0847,0.9272,16.6947,-2.0458,4.0,0,0,0
-0.4158,0.1057,0.9109,19.2901,-2.0916,5.0382,0,0,0
-0.4224,0.126,0.9138,19.7176,-4.0916,4.8473,0,0,0
-0.4084,0.1296,0.9197,18.7939,-4.8244,5.2443,0,0,0
-0.4065,0.1277,0.9294,19.0229,-4.1374,5.145,0,0,0
-0.405,0.0859,0.9382,19.6794,-4.5038,7.3053,0,0,0
-0.4656,0.1064,0.9172,23.2748,-4.5038,8.6336,0,0,0
-0.4133,0.165,0.9316,25.5496,-4.9237,9.4656,0,0,0
-0.4163,0.1687,0.9424,25.1603,-8.0229,5.6718,0,0,0
-0.4004,0.1924,0.9907,22.6641,-10.3282,5.1679,0,0,0
-0.394,0.2014,0.9766,25.855,-7.1298,6.2366,0,0,0
-0.3877,0.0261,1.0146,40.6031,-8.6336,6.374,0,0,0
-0.3625,0.0513,1.0051,63.2519,-5.7023,8.0153,0,0,0
-0.375,0.0767,0.9968,84.9237,-1.9695,8.4351,0,0,0
-0.3687,0.1443,0.9673,100.0763,-1.9084,9.7634,0,0,0
-0.3977,0.2339,0.9409,107.0916,-4.542,11.4198,0,0,0
-0.4067,0.3113,0.918,104.2443,-6.4198,10.7786,0,0,0
-0.3901,0.3696,0.9177,99.8931,-10.4122,9.4656,0,0,0
-0.3601,0.407,0.948,91.9695,-9.1221,10.4656,0,0,0
-0.3918,0.3142,0.9553,88.1145,-5.5802,10.8931,0,0,0
-0.2654,0.376,0.9189,91.7405,8.1985,6.2137,0,0,0
-0.4028,0.5339,0.752,79.9542,12.4046,1.1832,0,0,0
-0.4001,0.469,0.804,70.2061,13.2595,0.2214,0,0,0
-0.3823,0.4846,0.8313,57.0153,15.4046,-0.3969,0,0,0
-0.5002,0.2808,0.7266,58.5649,7.9924,-5.9008,0,0,0
-0.3972,0.3845,0.7815,54.7099,12.9084,-5.8092,0,0,0
-0.2925,0.4937,0.7898,55.2901,12.3664,-6.0,0,0,0
-0.3809,0.3462,0.7996,56.8702,7.2748,-8.2977,0,0,0
-0.3728,0.5081,0.728,48.6031,1.9695,-8.4122,0,0,0
-0.3477,0.3572,0.8523,48.9695,0.3893,-5.3893,0,0,0
-0.3657,0.3057,0.8552,51.916,0.5725,-3.9542,0,0,0
-0.3875,0.3223,0.8467,54.084,3.7481,-2.0534,0,0,0
-0.4307,0.0879,0.7903,58.1908,6.313,-1.3969,0,0,0
-0.3772,0.3215,0.8101,57.7634,5.3282,-0.374,0,0,0
-0.272,0.5984,0.8201,52.8702,12.7099,-1.8626,0,0,0
-0.4932,0.4211,0.6943,40.9847,12.1603,-5.4656,0,0,0
-0.4009,0.4885,0.7493,36.5496,7.3817,-5.4275,0,0,0
-0.3955,0.5371,0.7642,30.9084,5.8779,-7.9542,0,0,0
-0.3774,0.5366,0.7888,27.2061,5.0458,-12.229,0,0,0
-0.4285,0.5073,0.7695,25.0611,2.0992,-15.4504,0,0,0
-0.3657,0.5112,0.8049,25.0992,-3.6412,-14.626,0,0,0
-0.5039,0.4343,0.7776,23.5573,-2.4809,-14.1374,0,0,0
-0.3857,0.5261,0.8491,20.4885,-1.7634,-12.7481,0,0,0
-0.4446,0.5486,0.7954,17.9771,-9.3893,-10.8702,0,0,0
-0.4407,0.6135,0.7651,3.9084,1.4351,-12.5649,0,0,0
-0.2368,0.7256,0.9175,-7.5725,3.2595,-14.8168,0,0,0
-0.4976,0.5579,0.7212,-5.4656,-4.0382,-15.2443,0,0,0
-0.4897,0.4885,0.7825,-3.3588,-3.8397,-15.0458,0,0,0
-0.5171,0.3926,0.7805,1.1832,-1.6794,-13.855,0,0,0
-0.4326,0.5605,0.7732,-3.8779,3.3282,-12.2061,0,0,0
-0.4041,0.5447,0.8025,-11.0992,3.8321,-7.5496,0,0,0
-0.5942,0.4463,0.708,-16.9084,-4.0229,-2.6794,0,0,0
-0.3479,0.6116,0.8076,-26.4122,6.7863,-3.8855,0,0,0
-0.5874,0.2664,0.7739,-9.2214,-7.3053,3.0305,0,0,0
-0.4021,0.4651,0.7947,-8.4962,-0.9008,-0.6336,0,0,0
-0.4434,0.4431,0.7249,4.2672,-7.2061,5.7557,0,0,0
-0.4236,0.4907,0.7791,2.3435,-3.5649,7.4275,0,0,0
-0.4126,0.4375,0.7839,5.7786,-10.3588,10.1527,0,0,0
-0.5415,0.4021,0.7769,9.2519,-13.8397,4.8168,0,0,0
-0.3818,0.5215,0.7957,15.4198,-8.313,4.0534,0,0,0
-0.3132,0.5396,0.8655,14.1908,-4.1298,9.3817,0,0,0
-0.364,0.5154,0.8308,12.9237,-13.8626,9.3053,0,0,0
-0.2646,0.5669,0.9277,7.2061,-14.1069,8.458,0,0,0
-0.3328,0.5349,0.8979,-4.5344,-9.2672,8.3664,0,0,0
-0.4426,0.4771,0.7651,-3.4351,-15.3053,7.9618,0,0,0
-0.4126,0.5232,0.8374,0.5725,-9.5878,3.3359,0,0,0
-0.2302,0.4707,0.8928,13.4275,-9.0534,6.8092,0,0,0
-0.2881,0.4768,0.856,15.5802,-5.8244,10.9847,0,0,0
-0.3811,0.4546,0.8298,15.6641,-10.1527,12.8244,0,0,0
-0.3608,0.5505,0.8091,15.4962,-9.6794,17.2977,0,0,0
-0.345,0.5117,0.8423,14.0534,-1.0229,11.7786,0,0,0
-0.3713,0.5222,0.8152,8.3053,-5.2748,14.687,0,0,0
-0.3772,0.4944,0.7979,4.5496,-4.0458,15.8244,0,0,0
-0.3811,0.4763,0.7964,5.2061,-3.9542,17.2214,0,0,0
-0.3718,0.4688,0.7888,7.8931,-2.8321,18.1069,0,0,0
-0.3821,0.49,0.7856,11.1145,-3.7634,21.0763,0,0,0
-0.3704,0.4917,0.7866,13.6183,-4.2137,23.8015,0,0,0
-0.355,0.5359,0.7813,15.9313,-3.0458,25.3206,0,0,0
-0.3718,0.5371,0.7825,18.2977,-3.2137,25.1145,0,0,0
-0.3538,0.6023,0.7947,19.2443,-3.6794,24.6565,0,0,0
-0.3459,0.614,0.7969,16.7252,-0.9695,22.4275,0,0,0
-0.3245,0.6509,0.7783,11.8931,-0.2061,22.5649,0,0,0
-0.3474,0.6355,0.7759,8.1145,-0.5802,18.7863,0,0,0
-0.3591,0.6111,0.7561,4.8397,-3.2824,16.687,0,0,0
-0.3394,0.5837,0.7583,6.3053,-4.3817,14.229,0,0,0
-0.3513,0.5959,0.7505,6.2748,-6.4733,13.3588,0,0,0
-0.354,0.6067,0.7534,3.8473,-7.2901,12.2137,0,0,0
-0.3423,0.6135,0.759,1.6183,-7.1145,11.2214,0,0,0
-0.3389,0.6047,0.7637,-0.9771,-5.8244,8.9847,0,0,0
-0.3269,0.603,0.77,-2.9008,-3.4427,6.5649,0,0,0
-0.3313,0.6016,0.7781,-4.4427,-3.6794,5.3969,0,0,0
-0.3225,0.5686,0.7776,-2.3893,-3.3664,5.3664,0,0,0
-0.311,0.5596,0.7893,2.8626,-2.0458,3.8702,0,0,0
-0.3018,0.592,0.7891,3.4809,-1.7252,0.9466,0,0,0
-0.3198,0.5818,0.7935,2.0458,-1.9542,-0.8473,0,0,0
-0.3589,0.627,0.8059,-0.1069,-0.2519,-2.0229,0,0,0
-0.3955,0.6265,0.7422,-3.0076,-5.6031,-3.7939,0,0,0
-0.3127,0.582,0.7905,-3.7634,-6.3664,-5.229,0,0,0
-0.3086,0.5581,0.8013,-3.7481,-0.9313,-7.9008,0,0,0
-0.3525,0.5393,0.7859,-3.4733,0.2672,-8.2595,0,0,0
-0.3486,0.5334,0.7891,-4.084,-3.3969,-6.9389,0,0,0
-0.3232,0.5527,0.7998,-7.2595,-2.6718,-6.916,0,0,0
-0.3252,0.5669,0.7991,-10.7328,-0.7481,-6.0458,0,0,0
-0.3308,0.5356,0.8013,-12.8321,1.4427,-7.4122,0,0,0
-0.3457,0.5076,0.7878,-13.6718,-2.4885,-5.4198,0,0,0
-0.3638,0.5269,0.7771,-11.4351,-5.9847,-2.9313,0,0,0
-0.3369,0.5198,0.7681,-7.7252,-7.4198,-2.9389,0,0,0
-0.3384,0.5142,0.7732,-5.3511,-8.313,-1.9389,0,0,0
-0.3296,0.5027,0.7747,-1.4733,-8.8321,-0.6412,0,0,0
-0.3455,0.5313,0.7893,3.3664,-11.229,1.229,0,0,0
-0.2488,0.4565,0.7983,6.2519,-3.7786,0.7481,0,0,0
-0.3494,0.5146,0.7954,5.7634,-3.9542,2.3893,0,0,0
-0.365,0.5427,0.7522,5.8321,-2.2748,2.4885,0,0,0
-0.3293,0.5281,0.7664,3.7939,-6.6336,5.6947,0,0,0
-0.3179,0.5149,0.7942,6.0458,-7.9084,5.3206,0,0,0
-0.343,0.4995,0.7856,6.771,-9.4809,7.374,0,0,0
-0.3184,0.5261,0.8037,6.5344,-7.229,8.7099,0,0,0
-0.3511,0.5352,0.811,4.0611,-7.0382,11.6947,0,0,0
-0.3296,0.5593,0.8193,2.0916,-4.6183,11.7557,0,0,0
-0.3362,0.543,0.8333,3.7328,-2.687,11.2443,0,0,0
-0.3462,0.5493,0.8269,7.3206,-1.0076,11.6489,0,0,0
-0.3621,0.5415,0.8232,11.0534,-2.0,11.9847,0,0,0
-0.3726,0.5637,0.8169,13.0458,-4.5725,14.1298,0,0,0
-0.3584,0.5786,0.8213,14.7786,-5.5496,12.5267,0,0,0
-0.3518,0.5781,0.8098,14.7099,-5.2977,13.0916,0,0,0
-0.3474,0.5842,0.8025,14.1374,-6.7557,11.1298,0,0,0
-0.3213,0.5911,0.8093,12.8015,-5.3511,12.7939,0,0,0
-0.3096,0.5781,0.8154,11.0458,-2.1832,12.3435,0,0,0
-0.3145,0.5715,0.8101,11.145,-0.7176,12.4046,0,0,0
-0.3247,0.5762,0.7996,10.7863,0.4122,12.5649,0,0,0
-0.3203,0.5752,0.7964,10.458,-0.4885,13.1603,0,0,0
-0.3123,0.5696,0.8005,10.8855,-0.6489,14.313,0,0,0
-0.3013,0.5688,0.7859,12.8702,-0.1221,15.3893,0,0,0
-0.2957,0.5723,0.7861,15.7023,-0.0153,17.8397,0,0,0
-0.2778,0.5664,0.7847,18.9618,2.0687,17.0763,0,0,0
-0.2798,0.574,0.7852,20.8779,4.0916,17.4885,0,0,0
-0.2964,0.6172,0.7664,19.6794,4.0305,17.4809,0,0,0
-0.29,0.6541,0.7429,14.2137,2.3893,17.1298,0,0,0
-0.3096,0.7102,0.7278,9.9466,1.0,15.8855,0,0,0
-0.2771,0.6655,0.7422,3.4656,0.1145,16.4733,0,0,0
-0.2676,0.6382,0.7432,1.9084,0.7023,15.229,0,0,0
-0.261,0.6194,0.7527,6.4809,1.4275,15.7328,0,0,0
-0.2764,0.6396,0.7424,10.7252,2.0611,14.3817,0,0,0
-0.282,0.6416,0.7268,13.2443,1.7405,13.0534,0,0,0
-0.2842,0.6384,0.7224,12.9389,-0.3435,12.9847,0,0,0
-0.2795,0.635,0.7234,13.7176,-1.6412,13.1679,0,0,0
-0.2627,0.6533,0.7253,13.4275,-1.7634,12.9466,0,0,0
-0.1809,0.6445,0.7908,13.0611,4.9542,11.0687,0,0,0
-0.2808,0.6445,0.7327,9.9924,0.4275,10.3893,0,0,0
-0.2727,0.6724,0.7075,7.3053,0.1069,10.5725,0,0,0
-0.2515,0.6851,0.7029,4.1679,-0.5649,9.229,0,0,0
-0.2747,0.6594,0.7039,2.0763,-2.3053,8.1985,0,0,0
-0.2764,0.6379,0.7078,3.2443,-4.7939,9.4198,0,0,0
-0.2424,0.6687,0.7307,5.9847,-4.8092,8.3588,0,0,0
-0.2371,0.655,0.7676,6.8244,-6.1069,7.7023,0,0,0
-0.2556,0.6682,0.7444,5.4122,-5.9313,7.8931,0,0,0
-0.2563,0.6982,0.7693,4.374,-6.1908,6.8397,0,0,0
-0.2388,0.623,0.7551,7.4809,-6.1374,6.7023,0,0,0
-0.272,0.6567,0.76,9.3969,-5.7176,7.7634,0,0,0
-0.2256,0.6377,0.7456,13.1679,-5.458,7.5191,0,0,0
-0.2278,0.6621,0.7344,9.9771,-2.7863,7.1298,0,0,0
-0.2319,0.6614,0.7217,6.1069,-1.9771,8.8931,0,0,0
-0.238,0.6624,0.7563,4.0916,-0.3588,9.2519,0,0,0
-0.2107,0.6572,0.7061,2.4504,0.1985,8.8855,0,0,0
-0.2581,0.6797,0.7075,0.9084,1.5191,7.9008,0,0,0
-0.2583,0.6594,0.7104,2.3435,0.916,7.229,0,0,0
-0.2644,0.6716,0.7078,5.7481,-3.5954,7.3435,0,0,0
-0.2644,0.6826,0.7295,8.1069,-4.2519,7.1298,0,0,0
-0.2175,0.6606,0.7263,10.0305,-5.8779,6.4122,0,0,0
-0.2334,0.6445,0.7188,12.3206,-3.5267,5.771,0,0,0
-0.2507,0.6641,0.7024,12.6336,-5.0458,7.1679,0,0,0
-0.2344,0.6841,0.7532,13.6336,-0.4122,6.8702,0,0,0
-0.2578,0.6782,0.7175,12.5267,0.0916,6.9008,0,0,0
-0.252,0.6785,0.7158,12.8168,-1.5802,8.1603,0,0,0
-0.2529,0.6895,0.7046,11.4427,-1.2977,7.3053,0,0,0
-0.2524,0.6768,0.7109,9.8473,-2.0382,6.6183,0,0,0
-0.2642,0.6638,0.7041,9.0687,-3.4885,7.2214,0,0,0
-0.2375,0.6667,0.717,9.2901,-3.3282,8.6336,0,0,0
-0.2339,0.6648,0.7192,10.916,-2.8168,9.8626,0,0,0
-0.2104,0.7256,0.7212,9.2443,-1.4122,9.7557,0,0,0
-0.2004,0.762,0.7058,3.0229,1.2901,7.6641,0,0,0
-0.22,0.7803,0.7019,-7.2443,0.7863,6.3511,0,0,0
-0.2366,0.78,0.6924,-16.4962,-1.4427,4.5649,0,0,0
-0.25,0.7332,0.709,-20.1145,-5.2443,4.3817,0,0,0
-0.2224,0.729,0.7307,-18.4733,-5.8473,3.5573,0,0,0
-0.2178,0.6887,0.7595,-12.9389,-5.1298,1.8779,0,0,0
-0.2341,0.7021,0.7629,-5.5725,-4.8168,1.0534,0,0,0
-0.2307,0.7266,0.7529,-1.542,-3.2061,0.6412,0,0,0
-0.2483,0.7334,0.7312,-1.8702,-1.8473,0.3435,0,0,0
-0.2827,0.7283,0.6638,-4.5496,-5.6336,1.0076,0,0,0
-0.2209,0.6855,0.7512,-1.2901,-3.5573,0.5725,0,0,0
-0.2666,0.6367,0.7263,-3.1298,2.1298,-1.229,0,0,0
-0.2749,0.6321,0.7007,0.3511,-1.4962,-0.7634,0,0,0
-0.2515,0.7319,0.7102,-1.9618,1.4427,4.5802,0,0,0
-0.2241,0.6926,0.7217,-2.5191,-1.1985,-0.3206,0,0,0
-0.2241,0.7493,0.7129,-5.2366,0.687,0.9389,0,0,0
-0.2446,0.698,0.7271,-6.5649,-1.1145,-0.1374,0,0,0
-0.2271,0.6716,0.7317,-4.5878,-3.9237,-0.5878,0,0,0
-0.2131,0.6912,0.7422,-0.9389,-1.8626,-1.229,0,0,0
-0.2263,0.7075,0.7285,0.626,-1.626,-2.3206,0,0,0
-0.1985,0.7258,0.7095,-1.8931,0.2824,-2.4885,0,0,0
-0.2529,0.7061,0.6895,-1.9389,-2.855,-3.3969,0,0,0
-0.2314,0.6846,0.7085,-0.0916,-4.855,-3.6947,0,0,0
-0.2107,0.6851,0.7153,3.4733,-3.0916,-3.458,0,0,0
-0.2209,0.6606,0.7153,6.1374,-3.458,-3.9237,0,0,0
-0.1787,0.6746,0.7039,5.687,-1.0076,-2.8321,0,0,0
-0.2292,0.6516,0.6772,5.1756,-2.8702,-2.3588,0,0,0
-0.1941,0.6624,0.6885,2.5038,-2.5038,-0.5573,0,0,0
-0.2314,0.6509,0.6877,-1.7176,-2.0916,0.6718,0,0,0
-0.2441,0.6313,0.698,-2.8473,-6.3511,3.145,0,0,0
-0.2146,0.6106,0.7244,-0.8015,-7.145,3.7557,0,0,0
-0.2246,0.6184,0.7209,1.6794,-7.3053,4.7481,0,0,0
-0.1746,0.6772,0.7241,2.3206,-4.7634,5.313,0,0,0
-0.2327,0.6313,0.7129,0.8397,-3.9847,6.1374,0,0,0
-0.3987,0.5364,0.6692,10.7023,-15.9466,14.5038,0,0,0
-0.157,0.7908,0.7061,2.9924,-2.4046,12.8397,0,0,0
-0.1858,0.7161,0.7339,4.8168,-0.3588,13.7557,0,0,0
-0.2239,0.7522,0.7087,4.0611,-1.0076,11.8626,0,0,0
-0.2041,0.7432,0.7317,2.8244,-2.9008,10.2748,0,0,0
-0.2351,0.7629,0.7236,1.9237,-1.8168,8.4427,0,0,0
-0.1821,0.7629,0.7415,2.1679,0.3664,5.9924,0,0,0
-0.2058,0.7739,0.7205,2.916,-0.2214,4.3664,0,0,0
-0.1946,0.7588,0.7288,4.9847,0.4733,3.0,0,0,0
-0.217,0.7764,0.7095,5.8931,2.3206,2.5878,0,0,0
-0.2314,0.8135,0.7239,4.1145,1.2824,1.4809,0,0,0
-0.2285,0.7341,0.7034,3.4198,-2.5038,-0.7557,0,0,0
-0.2097,0.7556,0.7158,8.0458,-1.3359,-4.5344,0,0,0
-0.2029,0.7534,0.7219,9.9466,0.0992,-7.1298,0,0,0
-0.1946,0.7417,0.729,9.1221,0.7023,-8.458,0,0,0
-0.2288,0.7375,0.7134,5.9771,3.3435,-7.4427,0,0,0
-0.2085,0.7351,0.7219,3.4656,2.0916,-4.1145,0,0,0
-0.1414,0.7134,0.7334,3.7557,4.1145,-5.0916,0,0,0
-0.2166,0.7056,0.7153,5.3969,7.4351,-7.2443,0,0,0
-0.1987,0.7407,0.6824,6.9237,6.1221,-5.9695,0,0,0
-0.2056,0.7283,0.6812,5.458,2.6031,-7.0534,0,0,0
-0.2161,0.7156,0.6428,4.4504,0.855,-5.0992,0,0,0
-0.2134,0.7302,0.6543,2.7939,-0.313,-5.9771,0,0,0
-0.2212,0.7075,0.6748,5.9695,-1.8397,-5.2443,0,0,0
-0.1836,0.7046,0.6724,7.7634,-1.4275,-3.9466,0,0,0
-0.189,0.7146,0.6665,7.8855,-0.6641,-3.626,0,0,0
-0.2141,0.7471,0.6711,3.6107,-5.8244,-3.2214,0,0,0
-0.2014,0.7192,0.6824,0.9618,-6.3359,-4.229,0,0,0
-0.1865,0.6782,0.7031,0.4427,-5.0,-4.6947,0,0,0
-0.1794,0.7805,0.731,0.5115,-9.3511,-2.542,0,0,0
-0.2598,0.6287,0.7024,0.2748,-4.0458,-1.8015,0,0,0
-0.2048,0.7148,0.7039,-1.084,-1.855,-0.0153,0,0,0
-0.209,0.7092,0.7097,-2.4351,-1.3511,-1.7481,0,0,0
-0.2063,0.7471,0.6963,-6.3969,-0.1145,-3.1069,0,0,0
-0.2329,0.71,0.6758,-8.4962,-2.5344,-3.0916,0,0,0
-0.2163,0.6963,0.6804,-6.5725,-5.3511,-2.1145,0,0,0
-0.1897,0.7048,0.6753,-3.7557,-4.5115,-1.4504,0,0,0
-0.2085,0.7063,0.6631,-2.3893,-4.3359,-2.6107,0,0,0
-0.2085,0.7048,0.6553,-3.0763,-4.6565,-3.0229,0,0,0
-0.2012,0.7239,0.6545,-5.0229,-6.771,-2.7863,0,0,0
-0.2019,0.7236,0.6707,-7.7252,-7.9389,-2.855,0,0,0
-0.1675,0.7783,0.6687,-11.1221,-9.1221,-3.9008,0,0,0
-0.177,0.7659,0.668,-13.855,-9.4885,-5.9466,0,0,0
-0.1689,0.7249,0.6836,-13.5954,-10.0916,-7.9618,0,0,0
-0.1582,0.7727,0.658,-14.626,-4.3664,-10.0076,0,0,0
-0.2195,0.6978,0.616,-12.1603,-13.458,-9.5954,0,0,0
-0.1394,0.7415,0.6401,-17.2748,-13.7023,-7.8855,0,0,0
-0.2673,0.7432,0.6223,-21.8702,-20.1679,-13.2748,0,0,0
-0.0657,0.7988,0.6736,-27.8397,-16.1221,-14.4122,0,0,0
-0.3384,0.6704,0.6809,-25.7634,-25.5114,-15.6947,0,0,0
-0.2224,0.4841,0.7803,-20.8244,-28.6565,-13.2443,0,0,0
-0.1089,0.6736,0.8696,-18.8473,-27.0916,-12.5649,0,0,0
-0.2717,0.5825,0.803,-20.3817,-26.0,-17.4198,0,0,0
-0.1072,0.6633,0.8262,-27.9618,-21.0687,-13.5496,0,0,0
-0.2588,0.769,0.7063,-41.4046,-25.1832,-13.1832,0,0,0
-0.1631,0.6807,0.7756,-52.5725,-15.7328,-14.313,0,0,0
-0.3108,0.7249,0.666,-63.6107,-20.7176,-13.6641,0,0,0
-0.2107,0.5933,0.6885,-63.3282,-22.2824,-12.0229,0,0,0
-0.1824,0.5269,0.7366,-48.1145,-18.2137,-9.0916,0,0,0
-0.2073,0.6221,0.7305,-29.6489,-19.2901,-2.8244,0,0,0
-0.2664,0.5686,0.7207,-24.7099,-23.9389,2.458,0,0,0
-0.1929,0.6736,0.7397,-22.5878,-22.4885,1.8779,0,0,0
-0.2146,0.7649,0.7378,-28.771,-22.9771,1.6336,0,0,0
-0.1975,0.8025,0.7361,-41.3359,-22.6183,-0.6718,0,0,0
-0.2102,0.6423,0.7571,-46.0153,-22.4809,-6.3817,0,0,0
-0.1948,0.623,0.8022,-41.771,-21.8397,-6.5649,0,0,0
-0.1646,0.6367,0.8325,-37.3893,-16.1679,-8.6183,0,0,0
-0.178,0.6318,0.8354,-34.3435,-11.687,-8.1756,0,0,0
-0.1729,0.6396,0.8481,-35.7481,-9.0458,-8.0153,0,0,0
-0.1641,0.6494,0.8604,-39.3053,-8.8092,-7.7252,0,0,0
-0.1672,0.5588,0.8738,-40.8321,-6.771,-9.5115,0,0,0
-0.1516,0.4902,0.908,-29.7786,-6.9695,-9.7328,0,0,0
-0.1311,0.5,0.9187,-18.542,-1.5267,-9.7176,0,0,0
-0.1697,0.5129,0.9102,-10.3511,1.1374,-8.8855,0,0,0
-0.1772,0.5649,0.9172,-7.9389,1.1679,-6.6031,0,0,0
-0.1589,0.5969,0.936,-13.9389,4.5573,-5.3664,0,0,0
-0.1643,0.5957,0.9111,-20.4046,8.7863,-4.6489,0,0,0
-0.1882,0.5522,0.9324,-25.542,10.0076,-4.9771,0,0,0
-0.1184,0.5532,0.9897,-24.8626,16.5878,-4.8092,0,0,0
-0.1919,0.5374,0.9614,-23.9237,22.1985,-5.8092,0,0,0
-0.1721,0.5276,0.9602,-21.3893,24.9008,-5.2901,0,0,0
-0.2454,0.5354,0.9241,-18.9466,30.0687,-6.4809,0,0,0
-0.1924,0.5547,0.9514,-17.6412,32.0763,-6.7939,0,0,0
-0.2092,0.5381,0.9421,-14.687,35.5038,-7.6718,0,0,0
-0.2327,0.5266,0.9175,-10.4427,39.2443,-8.8244,0,0,0
-0.3401,0.4812,0.8914,-7.5191,34.8626,-5.8855,0,0,0
-0.2129,0.5076,0.8857,-1.6183,45.1527,-9.2901,0,0,0
-0.2988,0.4761,0.8484,3.5496,42.2061,-11.6183,0,0,0
-0.2412,0.5222,0.8257,6.7176,42.3206,-11.0305,0,0,0
-0.3384,0.4966,0.7976,8.1221,38.9542,-10.7252,0,0,0
-0.2454,0.5498,0.8152,8.542,34.8931,-5.8168,0,0,0
-0.2896,0.4956,0.7698,10.3969,32.6031,-4.687,0,0,0
-0.3101,0.4971,0.781,14.2748,24.8473,-3.6031,0,0,0
-0.292,0.5547,0.8076,9.7023,22.9313,0.4885,0,0,0
-0.2563,0.5554,0.8301,4.6947,24.084,1.145,0,0,0
-0.2598,0.5374,0.8538,2.1069,24.3588,1.8931,0,0,0
-0.2581,0.5439,0.8452,2.855,26.9237,0.4885,0,0,0
-0.2227,0.5635,0.8362,2.2977,28.6107,-0.7328,0,0,0
-0.2908,0.5547,0.801,1.2137,24.8626,-1.542,0,0,0
-0.2527,0.5935,0.7952,0.0229,22.1527,1.3664,0,0,0
-0.2832,0.5344,0.7898,2.1908,18.3817,-0.7634,0,0,0
-0.2688,0.4998,0.8105,5.1527,15.6489,-0.2443,0,0,0
-0.2542,0.4978,0.8198,8.8397,15.5191,0.6107,0,0,0
-0.2612,0.51,0.8098,12.4809,16.6031,2.1527,0,0,0
-0.2581,0.5166,0.802,12.7405,17.7557,4.1298,0,0,0
-0.2644,0.541,0.7798,11.2519,19.1298,5.0992,0,0,0
-0.2832,0.5276,0.7764,11.084,20.3206,5.4962,0,0,0
-0.2888,0.5476,0.7566,11.7099,19.5573,6.9008,0,0,0
-0.2773,0.5613,0.7566,11.3359,17.8244,8.9542,0,0,0
-0.2844,0.5659,0.7446,12.8855,17.7634,9.4733,0,0,0
-0.2891,0.5156,0.6741,20.1527,17.3053,6.2748,0,0,0
-0.3308,0.5962,0.728,23.6947,15.0076,4.5878,0,0,0
-0.3313,0.6028,0.698,23.313,10.8931,6.0992,0,0,0
-0.3298,0.6072,0.688,18.458,4.855,7.0763,0,0,0
-0.3179,0.614,0.7031,15.1221,2.1832,6.5725,0,0,0
-0.3018,0.6077,0.7224,12.9847,1.0534,5.7939,0,0,0
-0.2954,0.6184,0.7275,10.7252,0.6412,4.2824,0,0,0
-0.2961,0.6235,0.7268,6.9771,0.0534,3.916,0,0,0
-0.2915,0.6304,0.7178,4.5267,-0.7328,3.2595,0,0,0
-0.2979,0.5935,0.717,2.3206,-1.1069,3.0611,0,0,0
-0.3064,0.5884,0.7346,2.6336,-1.916,3.4275,0,0,0
-0.3044,0.6055,0.7454,2.5649,-2.9084,3.4733,0,0,0
-0.3,0.6306,0.7427,0.5878,-3.687,3.0687,0,0,0
-0.2969,0.6296,0.7427,-2.6641,-4.1603,1.8473,0,0,0
-0.2886,0.6318,0.7573,-6.8244,-4.2824,1.0153,0,0,0
-0.2922,0.6218,0.7683,-10.1756,-4.5267,0.5115,0,0,0
-0.2917,0.5964,0.7708,-12.1527,-5.6641,0.7481,0,0,0
-0.2803,0.6038,0.7515,-12.7481,-4.7176,-0.0763,0,0,0
-0.2939,0.5588,0.7781,-16.0229,-4.5878,2.5115,0,0,0
-0.3101,0.553,0.7896,-12.0076,-4.7328,4.1908,0,0,0
-0.3179,0.5889,0.8149,-9.7634,-4.4962,4.7557,0,0,0
-0.3105,0.5896,0.7983,-7.916,-1.6336,1.916,0,0,0
-0.3083,0.5752,0.7866,-6.9084,-0.7863,1.687,0,0,0
-0.3074,0.5723,0.7966,-4.5802,-0.2748,2.3511,0,0,0
-0.3059,0.5886,0.7996,-2.5725,1.3282,3.0992,0,0,0
-0.3049,0.6089,0.7893,-2.5344,2.2443,3.3359,0,0,0
-0.3184,0.6091,0.7832,-3.6489,2.084,2.5267,0,0,0
-0.3076,0.6084,0.781,-4.2443,1.1985,2.4351,0,0,0
-0.2954,0.5784,0.7708,-3.7176,1.1145,1.9771,0,0,0
-0.2908,0.5652,0.7693,-1.1603,1.3359,2.6031,0,0,0
-0.2961,0.5693,0.7676,0.7328,1.0382,2.9695,0,0,0
-0.291,0.5984,0.7808,0.8397,1.8168,3.6565,0,0,0
-0.2988,0.5896,0.7791,-0.2366,3.2443,3.3511,0,0,0
-0.3027,0.5869,0.7834,0.4504,3.6565,3.0992,0,0,0
-0.3083,0.5779,0.7715,3.0382,4.4351,1.8397,0,0,0
-0.3088,0.5813,0.7764,5.4656,4.4656,2.0229,0,0,0
-0.312,0.5701,0.7688,9.4351,4.3664,2.8397,0,0,0
-0.3171,0.6018,0.7751,11.1679,6.0076,2.5115,0,0,0
-0.2983,0.6536,0.77,8.5496,6.0153,0.8931,0,0,0
-0.2991,0.5835,0.7673,12.7863,9.0534,-2.0763,0,0,0
-0.3164,0.6499,0.7593,9.8626,8.2748,-2.374,0,0,0
-0.3049,0.626,0.7534,8.374,7.1985,-2.3511,0,0,0
-0.3044,0.6147,0.7449,8.5802,6.0153,-3.0458,0,0,0
-0.3105,0.6123,0.7471,9.4885,5.542,-3.4733,0,0,0
-0.3152,0.6372,0.74,9.4809,3.6412,-3.4656,0,0,0
-0.3123,0.6492,0.7434,7.4046,2.5878,-3.4198,0,0,0
-0.3176,0.6372,0.7363,3.6718,1.7328,-3.8473,0,0,0
-0.3086,0.626,0.7476,1.2672,-0.0153,-3.5496,0,0,0
-0.3059,0.6301,0.7512,-0.6107,-0.9695,-4.2061,0,0,0
-0.3015,0.634,0.7546,-3.9618,-1.8244,-4.4885,0,0,0
-0.2869,0.6375,0.7615,-7.3817,-2.145,-4.0687,0,0,0
-0.283,0.6262,0.7578,-10.2748,-2.2366,-1.7099,0,0,0
-0.2961,0.6226,0.7722,-11.2977,-1.8321,-2.0076,0,0,0
-0.2903,0.6018,0.7258,-8.8397,-0.2519,-4.4962,0,0,0
-0.3113,0.5576,0.7297,-5.1145,-2.1145,-2.4351,0,0,0
-0.3406,0.6128,0.7571,-4.3817,-3.0687,-2.0305,0,0,0
-0.3223,0.5884,0.7498,-2.7023,-2.7634,-2.3282,0,0,0
-0.3157,0.5879,0.7456,-1.5344,-3.7863,-1.6641,0,0,0
-0.3186,0.5857,0.74,-2.1603,-4.2061,-0.2443,0,0,0
-0.3154,0.6104,0.7629,-2.7328,-4.3206,0.458,0,0,0
-0.313,0.6323,0.7559,-4.771,-3.3435,-0.1298,0,0,0
-0.3169,0.6213,0.752,-7.7099,-3.1221,-0.687,0,0,0
-0.3279,0.6177,0.7561,-8.6641,-4.2824,-0.4122,0,0,0
-0.3159,0.5815,0.761,-7.5573,-4.7481,-0.0458,0,0,0
-0.3083,0.5774,0.7737,-4.2672,-4.1221,-0.0153,0,0,0
-0.3074,0.5671,0.7778,-0.1603,-2.8473,0.1374,0,0,0
-0.3064,0.5845,0.7781,2.0916,-2.0687,0.2061,0,0,0
-0.3086,0.5957,0.7761,1.687,-1.0763,-0.1221,0,0,0
-0.3176,0.615,0.7754,-1.2519,-0.6565,0.313,0,0,0
-0.3184,0.6133,0.761,-5.1298,-0.4122,0.3588,0,0,0
-0.3191,0.6252,0.7751,-8.7481,-0.4275,0.7481,0,0,0
-0.3286,0.6021,0.7642,-9.6947,-0.4122,-0.5802,0,0,0
-0.3315,0.5959,0.7698,-8.0382,-0.4427,-0.6183,0,0,0
-0.3274,0.553,0.7769,-3.626,-0.3282,-0.6336,0,0,0
-0.3242,0.5544,0.7698,1.6412,-0.6718,1.9084,0,0,0
-0.2981,0.6477,0.7473,8.5038,0.1679,-3.5267,0,0,0
-0.3071,0.6194,0.8335,7.8321,-1.0763,-2.8855,0,0,0
-0.322,0.6416,0.7744,2.8855,0.7863,-1.4275,0,0,0
-0.3025,0.6128,0.7466,-0.771,-0.0229,-3.6336,0,0,0
-0.3157,0.5942,0.7573,-1.1527,-0.9313,-3.458,0,0,0
-0.3076,0.5991,0.7581,-0.2977,-1.229,-3.0763,0,0,0
-0.3101,0.6045,0.7625,0.2137,-0.2977,-3.916,0,0,0
-0.3118,0.6042,0.7507,-1.1756,-0.8244,-3.687,0,0,0
-0.304,0.6074,0.7578,-3.8779,-1.0076,-3.1374,0,0,0
-0.3037,0.5981,0.7629,-6.2748,-1.7023,-2.2824,0,0,0
-0.2993,0.5933,0.7634,-8.0611,-2.0153,-0.9084,0,0,0
-0.2822,0.5959,0.77,-9.2443,-2.1908,1.3282,0,0,0
-0.2822,0.5955,0.7776,-8.6718,-1.0611,1.4351,0,0,0
-0.2993,0.6079,0.7813,-6.6641,0.0305,1.3359,0,0,0
-0.3032,0.6184,0.7754,-7.5496,1.1756,0.9008,0,0,0
-0.3318,0.6462,0.7358,-7.3053,-1.7634,3.0916,0,0,0
-0.3062,0.5918,0.7285,-7.0305,-1.4427,-0.1603,0,0,0
-0.3157,0.6047,0.7446,-8.1603,-2.145,-1.3817,0,0,0
-0.3159,0.6311,0.7576,-11.1679,-4.5725,-1.2443,0,0,0
-0.3118,0.6284,0.7583,-14.084,-4.9618,-2.5802,0,0,0
-0.3015,0.5776,0.7695,-13.4198,-4.6031,-2.2901,0,0,0
-0.2969,0.562,0.7813,-9.3053,-3.0458,-1.3282,0,0,0
-0.3,0.5754,0.7781,-5.5649,-1.5878,-1.3817,0,0,0
-0.3105,0.5779,0.7693,-4.6183,-0.3053,-1.3817,0,0,0
-0.3167,0.5916,0.7705,-4.5649,-1.5496,-1.1527,0,0,0
-0.312,0.6157,0.7822,-6.0916,-2.3359,-1.1527,0,0,0
-0.2998,0.6279,0.7866,-8.8626,-2.1069,-2.0534,0,0,0
-0.3091,0.6277,0.7817,-11.6489,-1.4962,-3.1298,0,0,0
-0.3101,0.6289,0.7803,-15.1908,-0.9237,-4.3588,0,0,0
-0.3132,0.637,0.7874,-20.2366,-1.0458,-5.6565,0,0,0
-0.3145,0.6431,0.771,-26.3435,-1.0458,-7.7176,0,0,0
-0.3152,0.6191,0.7644,-31.7481,-1.8855,-8.542,0,0,0
-0.3223,0.6106,0.7805,-35.7099,-2.8473,-9.7328,0,0,0
-0.3137,0.5972,0.7864,-37.7634,-3.8168,-10.855,0,0,0
-0.304,0.584,0.7917,-39.1832,-3.7405,-11.7939,0,0,0
-0.3113,0.5869,0.7939,-40.7176,-4.229,-12.7099,0,0,0
-0.3098,0.5886,0.801,-43.4885,-4.5878,-13.4351,0,0,0
-0.3059,0.5552,0.8052,-48.0076,-5.855,-14.8397,0,0,0
-0.3037,0.4678,0.8318,-46.9389,-5.8092,-13.3817,0,0,0
-0.2979,0.4634,0.8616,-42.3282,-5.1069,-11.0916,0,0,0
-0.2969,0.4692,0.8513,-38.6947,-3.4427,-9.9313,0,0,0
-0.3066,0.4604,0.866,-36.5649,-2.916,-8.3969,0,0,0
-0.3049,0.4543,0.8633,-33.3511,-2.374,-7.084,0,0,0
-0.2927,0.4409,0.8704,-29.6183,-0.9695,-4.771,0,0,0
-0.3025,0.4338,0.8691,-26.458,0.8473,-2.2519,0,0,0
-0.3,0.418,0.8716,-22.6412,2.8779,0.5573,0,0,0
-0.312,0.4287,0.8694,-18.2519,3.2824,4.1145,0,0,0
-0.2883,0.3772,0.8811,-14.9695,5.9618,7.626,0,0,0
-0.2861,0.4565,0.8696,-9.0992,8.1985,14.6641,0,0,0
-0.3447,0.4087,0.8528,-1.7405,7.0229,14.916,0,0,0
-0.271,0.5549,0.8494,0.7786,9.6107,17.2672,0,0,0
-0.3245,0.5728,0.8645,2.0229,11.084,12.3817,0,0,0
-0.3372,0.509,0.8674,0.6336,10.2595,9.8473,0,0,0
-0.3206,0.4819,0.8813,-0.2061,12.7405,8.1908,0,0,0
-0.3252,0.4634,0.8613,0.6565,14.0763,8.2214,0,0,0
-0.3076,0.4937,0.8582,1.1145,15.8473,7.7176,0,0,0
-0.3052,0.5356,0.8171,0.6565,13.6183,9.9847,0,0,0
-0.3347,0.5134,0.8269,0.0534,13.374,8.9389,0,0,0
-0.3274,0.4971,0.8479,-0.9771,16.9313,5.4809,0,0,0
-0.3455,0.4922,0.825,-0.0076,13.5191,6.5649,0,0,0
-0.3203,0.3838,0.843,-2.2901,15.7176,8.0382,0,0,0
-0.3271,0.4924,0.8162,-2.2519,14.3359,9.4198,0,0,0
-0.3369,0.4895,0.8225,-1.1221,12.1527,9.4198,0,0,0
-0.322,0.5457,0.812,-4.5344,13.2595,9.0305,0,0,0
-0.3423,0.4937,0.7961,-4.626,11.5878,7.6107,0,0,0
-0.3545,0.4846,0.7861,-1.8397,8.3206,7.3969,0,0,0
-0.3494,0.4578,0.7991,1.5725,6.5954,7.0611,0,0,0
-0.3269,0.5063,0.8157,2.3053,6.2366,6.6718,0,0,0
-0.3306,0.5552,0.844,0.1603,7.4656,4.3053,0,0,0
-0.3176,0.5503,0.8376,-3.4733,9.7786,2.2748,0,0,0
-0.3408,0.4446,0.8494,-5.1985,11.6107,2.0076,0,0,0
-0.3362,0.4919,0.8496,-2.0,11.229,2.8855,0,0,0
-0.3494,0.5029,0.8159,0.6489,12.458,2.1985,0,0,0
-0.3428,0.4929,0.825,1.7481,12.3817,0.5802,0,0,0
-0.3459,0.501,0.8354,1.4351,12.1603,0.9237,0,0,0
-0.3376,0.5242,0.8174,0.5954,10.1298,1.5725,0,0,0
-0.3323,0.5049,0.8167,-0.3053,11.7176,0.0992,0,0,0
-0.3411,0.5002,0.8132,-0.0382,11.1603,-0.6489,0,0,0
-0.353,0.5061,0.7942,-0.0916,10.2824,-1.1221,0,0,0
-0.3467,0.4973,0.8125,0.7176,10.6336,-1.458,0,0,0
-0.363,0.4883,0.7986,1.4122,9.4733,-1.5115,0,0,0
-0.3354,0.4817,0.8037,1.7863,8.1985,-0.6031,0,0,0
-0.3359,0.499,0.811,1.3893,8.9466,1.0763,0,0,0
-0.3508,0.5029,0.8154,1.0153,8.7252,0.6641,0,0,0
-0.3286,0.5215,0.8188,-0.2366,10.5802,-0.2519,0,0,0
-0.3489,0.5195,0.8032,-2.4427,13.6336,-2.2672,0,0,0
-0.377,0.5151,0.8091,-3.9237,11.4351,-2.1145,0,0,0
-0.3813,0.5166,0.7983,-4.0382,9.2901,-2.0763,0,0,0
-0.384,0.4922,0.7876,-2.7634,6.374,0.0992,0,0,0
-0.3723,0.4966,0.8103,-1.8397,6.0458,0.8321,0,0,0
-0.3674,0.5176,0.8123,-1.0076,5.3817,1.4198,0,0,0
-0.3655,0.5281,0.7976,-1.8931,6.8015,0.1908,0,0,0
-0.3718,0.5642,0.79,-3.2595,4.7634,2.4275,0,0,0
-0.3647,0.6057,0.7979,-5.3053,6.8779,1.6412,0,0,0
-0.3496,0.5623,0.8069,-8.4122,6.5496,2.3435,0,0,0
-0.3591,0.5496,0.8159,-12.2214,7.4198,1.0,0,0,0
-0.365,0.5205,0.813,-17.542,6.8092,1.2977,0,0,0
-0.3584,0.4802,0.7961,-21.0,8.6412,1.1679,0,0,0
-0.4058,0.489,0.7766,-22.4962,1.1374,3.1985,0,0,0
-0.3806,0.5032,0.7883,-22.7557,-1.1832,1.4046,0,0,0
-0.3669,0.4973,0.7966,-24.5038,-2.229,-1.4885,0,0,0
-0.3889,0.5486,0.7917,-27.0382,-3.7023,-4.4275,0,0,0
-0.3945,0.5398,0.7839,-30.6565,-5.5267,-6.6412,0,0,0
-0.3823,0.5127,0.7932,-34.2214,-6.7863,-9.0916,0,0,0
-0.3743,0.4885,0.8052,-37.7634,-6.7481,-10.2214,0,0,0
-0.3816,0.4656,0.8105,-38.8855,-6.6107,-10.5725,0,0,0
-0.3723,0.4553,0.8159,-38.374,-7.0305,-8.6641,0,0,0
-0.3618,0.4182,0.824,-36.3511,-6.2901,-6.3817,0,0,0
-0.3569,0.437,0.8137,-34.2977,-5.6641,-5.2443,0,0,0
-0.366,0.4524,0.8091,-34.4962,-4.9771,-3.626,0,0,0
-0.3735,0.4656,0.8362,-33.7328,-5.2214,-5.0076,0,0,0
-0.3728,0.4199,0.8486,-32.084,-5.0763,-6.8168,0,0,0
-0.3787,0.4272,0.8513,-33.771,-5.5344,-5.5038,0,0,0
-0.3855,0.4133,0.853,-33.1985,-5.687,-2.6794,0,0,0
-0.3831,0.4189,0.8503,-32.8626,-6.0763,-2.9008,0,0,0
-0.3713,0.3716,0.845,-32.0076,-5.6489,-1.4962,0,0,0
-0.365,0.3547,0.8845,-29.9389,-6.5115,-0.2595,0,0,0
-0.3594,0.3472,0.8855,-28.4122,-7.1985,1.7634,0,0,0
-0.3718,0.3638,0.9097,-24.1221,-8.7634,4.855,0,0,0
-0.3506,0.3271,0.9102,-18.5954,-6.5191,5.374,0,0,0
-0.3682,0.3796,0.9189,-11.855,-5.4351,8.542,0,0,0
-0.3464,0.2944,0.9287,-5.4198,0.8015,9.3817,0,0,0
-0.3582,0.345,0.9023,1.1908,4.0153,10.313,0,0,0
-0.3672,0.3633,0.8999,2.1527,4.1527,11.6565,0,0,0
-0.3879,0.3877,0.8696,0.8473,3.4275,9.2061,0,0,0
-0.397,0.4641,0.8635,-2.4885,0.0687,5.4885,0,0,0
-0.3611,0.3748,0.855,-4.3053,-2.458,2.9924,0,0,0
-0.355,0.3379,0.8616,-2.3664,-1.0,4.5115,0,0,0
-0.3547,0.3567,0.8657,3.7023,0.8473,5.0687,0,0,0
-0.3579,0.3997,0.8645,4.3435,2.5038,5.313,0,0,0
-0.3726,0.4141,0.8552,3.0305,1.9237,5.5725,0,0,0
-0.3801,0.4185,0.8523,1.6412,-0.5191,5.4962,0,0,0
-0.3708,0.4172,0.8608,1.9618,-1.0611,5.9847,0,0,0
-0.3772,0.4441,0.8521,2.2748,-0.3053,3.9008,0,0,0
-0.3716,0.4514,0.844,0.4504,-1.0992,2.4885,0,0,0
-0.3594,0.4324,0.8481,-1.6183,-2.3969,3.0229,0,0,0
-0.3491,0.4241,0.8645,-1.6565,-3.3511,2.6565,0,0,0
-0.3359,0.4385,0.8782,-2.6794,-1.7252,1.4504,0,0,0
-0.3433,0.436,0.8877,-3.6412,0.9008,0.5115,0,0,0
-0.3474,0.4199,0.8696,-3.5344,1.8626,-0.4885,0,0,0
-0.3547,0.418,0.864,-2.6794,1.5878,-2.0229,0,0,0
-0.3523,0.3914,0.8472,-1.6565,1.6947,-2.4427,0,0,0
-0.3618,0.4111,0.8464,-0.6794,0.5496,-2.458,0,0,0
-0.3567,0.3875,0.845,-2.0076,-0.6794,-1.6947,0,0,0
-0.364,0.3901,0.8484,-1.8244,-2.2595,-0.374,0,0,0
-0.3562,0.3892,0.8618,-1.8473,-3.1756,-0.3359,0,0,0
-0.3474,0.3828,0.8762,-1.6794,-2.542,0.5802,0,0,0
-0.3484,0.3938,0.8718,-1.1145,-1.6565,1.3053,0,0,0
-0.3462,0.3923,0.8696,-0.145,-1.7863,0.8092,0,0,0
-0.3481,0.3899,0.8706,0.7863,-1.4427,0.6718,0,0,0
-0.3494,0.4055,0.8828,1.4733,-1.3511,0.5038,0,0,0
-0.3464,0.4136,0.8845,1.458,-0.0611,0.8855,0,0,0
-0.3459,0.3992,0.8892,0.9313,0.0611,2.2137,0,0,0
-0.3472,0.4197,0.8896,1.5344,0.1145,1.7176,0,0,0
-0.3416,0.4243,0.8975,0.2061,0.9466,0.5573,0,0,0
-0.356,0.4011,0.8879,-0.2214,2.7634,0.5573,0,0,0
-0.3621,0.3994,0.894,-0.0229,2.7252,0.9542,0,0,0
-0.3521,0.3989,0.9072,0.626,2.8702,2.1298,0,0,0
-0.3401,0.4019,0.9248,-0.1756,4.4198,3.7023,0,0,0
-0.3372,0.4226,0.9268,-2.7252,7.229,4.0687,0,0,0
-0.3423,0.4297,0.9116,-4.9771,9.8702,3.8779,0,0,0
-0.3503,0.397,0.8823,-6.7863,11.9847,4.6336,0,0,0
-0.3523,0.3831,0.8665,-6.6794,12.8397,5.3053,0,0,0
-0.3572,0.3862,0.8777,-6.5878,12.1145,5.6183,0,0,0
-0.3782,0.3867,0.8674,-6.7023,12.7328,6.8092,0,0,0
-0.3801,0.3958,0.8848,-5.7939,10.7863,6.7863,0,0,0
-0.375,0.4031,0.8962,-6.9695,9.855,8.2595,0,0,0
-0.3691,0.3923,0.8726,-6.3511,10.1603,7.4656,0,0,0
-0.3806,0.3718,0.8599,-4.8244,9.2061,8.5878,0,0,0
-0.3801,0.3757,0.8337,-4.0076,7.6412,10.3969,0,0,0
-0.3945,0.3723,0.8271,-5.7328,5.9313,10.0992,0,0,0
-0.3755,0.4111,0.8247,-1.8168,3.9389,9.855,0,0,0
-0.3816,0.4133,0.8289,-0.8702,4.5038,8.0611,0,0,0
-0.3813,0.4028,0.8269,0.1603,3.4275,7.2366,0,0,0
-0.3755,0.4106,0.842,1.2443,2.771,7.2519,0,0,0
-0.374,0.4351,0.8376,1.5878,2.9695,6.313,0,0,0
-0.3804,0.4429,0.8467,-0.2366,2.6489,5.1679,0,0,0
-0.3821,0.4438,0.8413,-1.9542,2.1679,4.2214,0,0,0
-0.3794,0.4216,0.8464,-2.145,0.916,3.0229,0,0,0
-0.3677,0.4233,0.8501,-0.2824,0.7023,2.1527,0,0,0
-0.3599,0.426,0.8542,0.8168,0.7939,2.0763,0,0,0
-0.3582,0.436,0.8564,1.7634,1.0382,1.6412,0,0,0
-0.3545,0.4517,0.8652,1.084,1.8931,0.6183,0,0,0
-0.3635,0.4531,0.8752,-0.7252,2.6565,0.8244,0,0,0
-0.3628,0.4341,0.887,-1.0076,3.2672,1.5038,0,0,0
-0.3738,0.4424,0.8667,0.5649,4.5344,0.5878,0,0,0
-0.3872,0.4504,0.8547,0.6641,6.0229,1.0916,0,0,0
-0.3845,0.408,0.8396,0.9695,3.4427,-0.2366,0,0,0
-0.375,0.4114,0.8574,1.1679,1.7176,0.6794,0,0,0
-0.3711,0.4424,0.8547,3.5649,1.5115,1.6794,0,0,0
-0.363,0.4275,0.821,6.0,1.7939,0.9237,0,0,0
-0.3372,0.4075,0.7969,6.2214,1.4504,-0.0687,0,0,0
-0.3684,0.4248,0.8496,6.4046,3.2748,-1.5649,0,0,0
-0.3694,0.4365,0.8569,4.6412,2.4962,0.0305,0,0,0
-0.373,0.4275,0.8423,4.0992,2.3359,-0.3969,0,0,0
-0.3728,0.4324,0.853,3.0153,2.1603,0.2824,0,0,0
-0.387,0.4443,0.8525,2.7786,1.4427,-0.2443,0,0,0
-0.3772,0.4368,0.8364,3.2748,-0.145,-1.1298,0,0,0
-0.3792,0.4309,0.8259,2.5038,-1.7863,-2.2672,0,0,0
-0.3711,0.4214,0.8472,2.6947,-2.3664,-2.771,0,0,0
-0.3621,0.4304,0.855,0.7176,-1.5496,-2.1527,0,0,0
-0.3655,0.4412,0.8564,-1.0305,0.2366,-2.0229,0,0,0
-0.3691,0.4573,0.844,-4.4198,0.7405,-3.4809,0,0,0
-0.3789,0.4629,0.8403,-8.1985,0.2443,-5.3817,0,0,0
-0.3728,0.4536,0.842,-11.0687,-0.8931,-5.8626,0,0,0
-0.3672,0.4348,0.8374,-12.4122,-1.4046,-4.9618,0,0,0
-0.3733,0.428,0.8237,-12.2748,-1.458,-5.2824,0,0,0
-0.3765,0.4268,0.8271,-13.0,-0.916,-7.3511,0,0,0
-0.3823,0.3823,0.7798,-6.8015,-3.0,-8.3817,0,0,0
-0.3894,0.3706,0.7998,-1.3359,-5.1908,-6.3664,0,0,0
-0.3958,0.4065,0.8181,0.5954,-5.8168,-4.6183,0,0,0
-0.3799,0.4185,0.8384,1.2061,-8.2061,-2.6183,0,0,0
-0.3755,0.4319,0.8508,-0.4427,-7.9847,-1.7786,0,0,0
-0.3843,0.4585,0.8884,-3.2901,-7.2137,-3.5802,0,0,0
-0.3655,0.4529,0.9036,-6.7481,-5.2977,-5.7328,0,0,0
-0.3633,0.4517,0.895,-9.2443,-2.6183,-7.6031,0,0,0
-0.3674,0.436,0.8789,-11.3435,-0.9466,-9.7023,0,0,0
-0.3809,0.4233,0.8762,-12.7099,-0.3893,-10.3053,0,0,0
-0.3853,0.4392,0.8796,-15.7405,-1.0076,-11.5573,0,0,0
-0.3884,0.4587,0.8875,-22.2901,-1.229,-12.6489,0,0,0
-0.3901,0.4534,0.9038,-30.3969,-1.1069,-13.9313,0,0,0
-0.3745,0.4333,0.9048,-35.9771,-0.542,-15.6489,0,0,0
-0.3591,0.4204,0.8813,-40.2977,0.687,-16.4046,0,0,0
-0.373,0.3987,0.8723,-43.2214,2.5802,-16.5344,0,0,0
-0.3811,0.3806,0.8911,-44.2595,3.0076,-15.145,0,0,0
