ax,ay,az,gx,gy,gz,left_click,right_click
-0.2185,0.0964,1.0002,-2.9313,-2.2672,-1.5267,0,0,0
-0.2107,0.0872,0.9993,-2.9618,-3.1221,-2.1527,0,0,0
-0.1914,0.0684,1.0081,-2.626,-2.0076,-2.1679,0,0,0
-0.1968,0.0784,0.9983,-2.3359,-1.916,-0.9618,0,0,0
-0.2063,0.0847,0.9941,-2.1832,-2.4504,-0.8626,0,0,0
-0.2134,0.0823,1.0093,-2.626,-2.313,-0.2519,0,0,0
-0.2144,0.092,1.0061,-2.7099,-2.6031,-1.3511,0,0,0
-0.1963,0.0757,1.0044,-2.1756,-2.1679,-1.7252,0,0,0
-0.1909,0.0688,1.0095,-1.3359,-1.7099,-1.6336,0,0,0
-0.1931,0.0688,1.0042,-0.542,-0.9847,-0.5344,0,0,0
-0.2012,0.0789,1.0029,-1.0,-1.7328,1.3282,0,0,0
-0.2134,0.0774,0.9978,-1.5267,-2.8702,1.7634,0,0,0
-0.2004,0.0613,1.0046,-0.9695,-3.1527,2.0611,0,0,0
-0.1892,0.0686,1.0139,-0.4275,-2.0992,2.6794,0,0,0
-0.1936,0.0627,1.012,0.1221,-1.8779,4.542,0,0,0
-0.2053,0.0698,1.0132,0.229,-2.5649,7.8626,0,0,0
-0.2307,0.0723,1.0044,-1.9237,-5.6412,14.145,0,0,0
-0.1558,0.0239,1.0476,-4.145,-8.4962,25.2824,0,0,0
-0.2366,-0.1323,1.0117,-3.5573,-9.8092,32.9771,0,0,0
-0.0364,0.0664,0.9075,-3.374,-13.6794,50.9618,0,0,0
-0.1436,-0.02,1.0166,-6.4275,-16.5496,70.4351,0,0,0
-0.1699,0.0276,1.0186,-6.3664,-19.4046,78.5725,0,0,0
-0.2419,0.0659,1.0596,-5.5038,-27.4351,80.6718,0,0,0
-0.1616,0.1184,1.0847,-8.5267,-8.0611,70.4428,0,0,0
-0.1411,0.0701,1.0627,-7.0458,-9.1374,71.0611,0,0,0
0.105,0.1204,1.1819,-11.626,-7.4275,79.2214,0,0,0
-0.1355,0.1067,1.1443,-24.6641,-2.8397,87.6565,0,0,0
-0.1404,0.083,1.0828,-31.3359,0.5267,93.5191,0,0,0
-0.0576,0.0193,1.0203,-32.7557,3.626,97.7099,0,0,0
-0.1428,0.0825,0.9243,-28.6947,7.9924,97.7023,0,0,0
-0.0815,0.0359,0.9807,-16.9313,4.0305,92.6031,0,0,0
-0.1646,-0.0049,0.9524,-4.1908,20.1908,86.2214,0,0,0
-0.1936,0.113,0.8853,8.9771,22.6947,77.9771,0,0,0
-0.2205,0.1123,0.928,19.8092,23.458,68.6718,0,0,0
-0.2346,0.1584,0.9893,23.7557,23.8473,60.1908,0,0,0
-0.2546,0.2046,1.0164,20.9313,23.1832,52.9313,0,0,0
-0.2727,0.2144,0.9966,17.9695,20.2672,44.0687,0,0,0
-0.3125,0.2129,0.9836,17.7099,13.9771,34.542,0,0,0
-0.3274,0.2371,1.0022,17.4046,7.1756,21.4122,0,0,0
-0.3196,0.2996,1.0186,11.4046,0.5267,10.0611,0,0,0
-0.2776,0.2246,1.0437,4.7863,-4.8168,-0.9695,0,0,0
-0.1689,0.1519,1.0442,3.7099,-3.8168,-3.5344,0,0,0
-0.1299,0.1404,1.019,4.9008,1.6794,0.0,0,0,0
-0.1501,0.167,0.9785,6.6565,3.9695,1.2595,0,0,0
-0.1719,0.144,0.9844,8.2519,3.084,-0.3817,0,0,0
-0.1704,0.1807,0.9792,7.7786,0.1221,-3.458,0,0,0
-0.177,0.1616,1.0237,7.626,-3.9542,-7.7863,0,0,0
-0.1731,0.1697,1.0193,6.0458,-2.7786,-12.0458,0,0,0
-0.1475,0.1604,1.01,6.9695,0.2519,-14.1756,0,0,0
-0.1587,0.1265,0.9941,10.5878,2.1145,-17.7099,0,0,0
-0.1511,0.1179,0.9609,15.5267,5.7634,-19.626,0,0,0
-0.155,0.157,0.95,21.2061,6.145,-22.7786,0,0,0
-0.2224,0.1812,0.9199,25.3511,7.8168,-26.7099,0,0,0
-0.2405,0.2124,0.9309,25.2214,3.0458,-31.6565,0,0,0
-0.2664,0.2161,0.9238,22.1374,-6.313,-38.626,0,0,0
-0.2244,0.2002,0.9402,20.3282,-18.8931,-45.7634,0,0,0
-0.1765,0.1711,0.9741,20.626,-18.3893,-49.8931,0,0,0
-0.1946,0.1536,0.978,21.1908,-19.2901,-54.7634,0,0,0
-0.1343,0.1365,1.0112,20.6794,-17.8092,-52.5267,0,0,0
-0.1245,0.1387,1.002,18.5267,-19.3435,-45.7557,0,0,0
-0.1221,0.1631,0.9775,21.7176,-15.0992,-44.9618,0,0,0
-0.1895,0.115,0.9666,27.1221,-8.6794,-45.1832,0,0,0
-0.1904,0.1643,0.9749,33.0076,0.5344,-47.6794,0,0,0
-0.179,0.1956,0.9775,34.8092,4.4198,-51.6794,0,0,0
-0.2312,0.2629,0.9546,31.9237,-0.313,-50.4046,0,0,0
-0.231,0.2136,1.0015,25.1756,-11.2443,-46.7939,0,0,0
-0.1775,0.2222,1.0215,17.6565,-13.6336,-43.8244,0,0,0
-0.2063,0.2109,1.0156,12.4656,-15.0763,-39.9924,0,0,0
-0.2202,0.2578,0.978,10.0,-20.6183,-42.0992,0,0,0
-0.2107,0.187,1.002,9.0992,-23.5496,-44.6718,0,0,0
-0.1733,0.1584,1.0269,10.9847,-24.0153,-47.9542,0,0,0
-0.0959,0.1819,1.0071,12.8779,-8.4504,-49.458,0,0,0
-0.2283,0.1907,0.9746,14.5573,-5.1908,-44.2137,0,0,0
-0.2383,0.2397,1.0081,10.8244,-7.7023,-41.8168,0,0,0
-0.1724,0.2498,1.012,6.855,-8.1069,-43.2672,0,0,0
-0.209,0.1873,0.9817,7.2137,-9.3664,-45.3053,0,0,0
-0.1538,0.1804,1.01,11.0305,-7.5344,-44.4198,0,0,0
-0.1494,0.1831,1.0325,9.2519,-2.9771,-42.1832,0,0,0
-0.1445,0.1775,1.0176,8.1374,-2.5725,-39.8931,0,0,0
-0.1294,0.1814,0.9941,7.8244,-0.4504,-33.6031,0,0,0
-0.1589,0.1978,0.9998,6.3206,-0.7481,-26.229,0,0,0
-0.1611,0.1826,1.0027,5.0458,-0.1603,-23.5725,0,0,0
-0.1763,0.1777,0.9773,7.3817,0.5954,-23.2595,0,0,0
-0.1943,0.2036,0.9719,10.1298,0.0916,-25.4809,0,0,0
-0.2444,0.2175,0.9792,11.3511,-1.6183,-26.855,0,0,0
-0.2126,0.2451,1.0159,7.2443,-3.3817,-26.4504,0,0,0
-0.1843,0.199,1.0186,3.9771,-1.5344,-26.9466,0,0,0
-0.1904,0.21,0.9951,2.0992,-0.9466,-23.1756,0,0,0
-0.166,0.1975,1.0051,0.4733,0.4962,-19.313,0,0,0
-0.1494,0.1863,0.9976,-0.7405,1.9542,-13.7023,0,0,0
-0.1853,0.2024,1.0037,-2.3817,1.6641,-8.313,0,0,0
-0.1914,0.2136,0.9995,-5.2366,0.9695,-5.5649,0,0,0
-0.1931,0.2004,0.9951,-6.458,0.6718,-4.084,0,0,0
-0.1755,0.1826,0.991,-5.2672,0.8473,-2.9466,0,0,0
-0.1968,0.2078,0.9966,-4.9313,2.1756,-1.1374,0,0,0
-0.2117,0.1982,1.0024,-5.6031,2.5725,-1.9466,0,0,0
-0.2297,0.2283,0.9802,-7.0076,1.771,-2.3206,0,0,0
-0.2346,0.2278,0.9497,-8.6183,-2.2214,-2.7405,0,0,0
-0.1936,0.189,0.9519,-6.626,-4.8855,-3.1603,0,0,0
-0.1802,0.1948,0.9587,-3.6641,-3.0992,-1.0382,0,0,0
-0.2041,0.1992,0.9878,-1.6718,-1.8855,-2.1298,0,0,0
-0.2007,0.2026,1.0166,-1.2595,-1.2672,-1.5115,0,0,0
-0.1912,0.2063,1.0281,-3.1679,-0.2901,-0.7405,0,0,0
-0.1858,0.2092,1.0171,-4.3359,0.8931,0.1374,0,0,0
-0.2112,0.2153,1.0078,-5.084,1.229,0.2519,0,0,0
-0.1921,0.2107,1.001,-6.7939,0.9008,-0.5954,0,0,0
-0.189,0.1995,0.9819,-5.9237,0.3969,0.2748,0,0,0
-0.1885,0.1995,0.9873,-4.6412,2.1832,0.4427,0,0,0
-0.2009,0.2209,0.989,-4.2901,3.0,0.7481,0,0,0
-0.2041,0.2207,1.001,-5.4656,3.9008,-2.0534,0,0,0
-0.1719,0.2185,1.0198,-6.5878,7.2977,-2.8015,0,0,0
-0.166,0.2092,1.0596,-10.5649,12.8092,-4.687,0,0,0
-0.1926,0.2014,1.0569,-14.0534,17.3359,-6.8779,0,0,0
-0.1799,0.2014,1.0425,-17.0763,21.9237,-9.8015,0,0,0
-0.196,0.197,1.0281,-18.2519,25.6336,-13.6794,0,0,0
-0.1833,0.1973,1.0144,-18.3282,30.0,-17.8931,0,0,0
-0.1833,0.1648,0.9731,-16.1374,32.5954,-18.3282,0,0,0
-0.0266,0.2173,0.9648,-12.2366,51.7634,-24.3053,0,0,0
-0.2329,0.1211,0.9392,-8.3969,57.8092,-17.2595,0,0,0
-0.2976,0.1516,0.9331,-8.8855,51.9008,-11.5496,0,0,0
-0.2646,0.1572,0.9795,-10.1756,46.7939,-6.855,0,0,0
-0.2346,0.1416,0.9915,-13.2137,43.4809,0.5115,0,0,0
-0.2639,0.165,0.9717,-15.9466,43.6947,6.9847,0,0,0
-0.3313,0.1626,0.9343,-16.4962,42.9084,7.4656,0,0,0
-0.3079,0.1636,0.9238,-14.5115,40.0382,5.0,0,0,0
-0.3049,0.1326,0.9348,-12.5649,34.6565,3.8626,0,0,0
-0.2483,0.113,0.9692,-11.4198,33.7634,8.6794,0,0,0
-0.2935,0.1235,0.9612,-10.9847,33.0382,14.1756,0,0,0
-0.3667,0.1379,0.9202,-8.7481,29.8092,14.2672,0,0,0
-0.405,0.1733,0.8906,-6.3893,21.2672,11.8626,0,0,0
-0.4641,0.1843,0.9167,-3.1145,13.2748,3.5191,0,0,0
-0.4175,0.2185,0.958,-4.542,5.3053,-3.5878,0,0,0
-0.3831,0.2041,0.981,-8.6794,3.0534,-6.2901,0,0,0
-0.2585,0.3064,0.9783,-13.2519,7.3969,-10.3588,0,0,0
-0.3101,0.1355,1.0005,-16.687,13.916,-7.2672,0,0,0
-0.2756,0.0977,1.0073,-17.0229,22.2901,-3.9695,0,0,0
-0.2783,0.1157,0.9526,-13.1298,25.5649,-1.7328,0,0,0
-0.3396,0.1069,0.9233,-9.8702,22.9084,1.4656,0,0,0
-0.375,0.1294,0.905,-7.7481,15.4962,2.2824,0,0,0
-0.3618,0.1333,0.9067,-5.855,7.0534,3.0076,0,0,0
-0.3574,0.1367,0.9165,-3.4275,1.458,5.145,0,0,0
-0.3528,0.1313,0.9333,-2.5573,-2.0229,5.7023,0,0,0
-0.3752,0.1492,0.9224,-2.0,-5.7252,4.4733,0,0,0
-0.4016,0.166,0.9316,-0.8244,-11.0687,2.7252,0,0,0
-0.3982,0.1604,0.9568,-3.1908,-16.3664,1.6336,0,0,0
-0.4045,0.1899,0.9482,-7.3588,-25.7252,2.458,0,0,0
-0.3875,0.1523,0.9106,-10.4275,-33.4504,3.9237,0,0,0
-0.3782,0.0835,0.8792,-7.6565,-42.084,7.3206,0,0,0
-0.3066,0.1472,0.8896,-3.6641,-44.4504,9.7328,0,0,0
-0.2722,0.0999,0.9509,0.2824,-38.8931,13.4809,0,0,0
-0.3154,0.1252,0.9482,3.0382,-36.8931,14.9924,0,0,0
-0.3081,0.1465,0.9648,4.6336,-35.771,14.2748,0,0,0
-0.2786,0.1521,0.9934,2.8779,-33.6641,16.4198,0,0,0
-0.3162,0.1899,1.0049,-0.6565,-33.4504,17.3053,0,0,0
-0.3,0.1699,1.0254,-5.4809,-33.2366,15.9847,0,0,0
-0.2766,0.1816,0.9961,-9.229,-33.374,16.626,0,0,0
-0.2485,0.157,0.9949,-9.4198,-29.2366,14.9542,0,0,0
-0.2073,0.1248,0.9939,-6.9084,-23.4198,13.626,0,0,0
-0.2004,0.1104,0.9839,-3.4351,-17.2901,15.3893,0,0,0
-0.2283,0.1223,0.9661,-0.7099,-15.8626,18.9542,0,0,0
-0.2732,0.1812,0.9595,-1.1221,-16.3282,19.5496,0,0,0
-0.2815,0.1533,1.0249,-2.5115,-19.3282,16.229,0,0,0
-0.2424,0.1587,1.0349,-4.2824,-16.2595,14.0687,0,0,0
-0.2334,0.1479,1.0063,-5.4656,-14.9237,16.5038,0,0,0
-0.23,0.1785,0.9888,-7.4656,-18.0,18.7557,0,0,0
-0.2236,0.1599,0.9805,-9.1145,-18.3053,16.7939,0,0,0
-0.2754,0.1089,0.9402,-8.1298,-22.5191,15.6031,0,0,0
-0.241,0.1509,0.9241,-4.3435,-28.0,14.8092,0,0,0
-0.2109,0.1577,0.9807,-1.2824,-30.0305,15.6794,0,0,0
-0.1895,0.1404,1.0537,-1.6947,-23.1374,16.9618,0,0,0
-0.1548,0.1577,1.0469,-3.916,-14.1298,16.6412,0,0,0
-0.188,0.1396,1.0024,-5.1679,-8.6336,16.8092,0,0,0
-0.2119,0.116,0.9785,-4.1221,-7.3969,18.7634,0,0,0
-0.1348,0.1023,1.0002,-1.4885,-8.3511,27.5344,0,0,0
-0.1167,0.0859,1.0308,0.4733,-1.8702,31.229,0,0,0
-0.1714,0.1453,1.0225,3.2901,1.9389,30.8473,0,0,0
-0.1829,0.1875,1.0391,-0.2595,4.2366,31.1145,0,0,0
-0.1702,0.1743,1.0366,-5.626,8.8779,31.084,0,0,0
-0.1921,0.1448,1.0066,-5.7023,11.0076,32.0,0,0,0
-0.2009,0.1509,1.0103,-5.4885,12.4504,32.6107,0,0,0
-0.209,0.1467,0.9956,-6.2977,11.0916,31.542,0,0,0
-0.1919,0.1714,0.9951,-8.0611,10.145,31.6031,0,0,0
-0.1956,0.1743,0.9817,-10.084,8.7557,34.626,0,0,0
-0.1865,0.1638,0.991,-11.6794,5.8855,39.0153,0,0,0
-0.2075,0.1594,1.0051,-11.0687,3.9847,38.9924,0,0,0
-0.1912,0.1887,1.0156,-11.916,9.5267,37.1374,0,0,0
-0.239,0.2029,1.0002,-12.0229,11.0305,32.7099,0,0,0
-0.2617,0.1934,0.9856,-10.5267,11.0,25.4427,0,0,0
-0.2422,0.1865,0.9995,-9.5954,12.8855,15.4427,0,0,0
-0.2163,0.1787,0.9939,-7.7328,16.2519,7.7328,0,0,0
-0.1904,0.1436,0.9978,-5.6107,22.145,4.9466,0,0,0
-0.219,0.187,0.9824,-5.5954,25.6183,4.8855,0,0,0
-0.2422,0.1731,1.002,-7.7405,24.626,2.0611,0,0,0
-0.2273,0.175,1.0059,-9.2748,22.8015,-2.9466,0,0,0
-0.2131,0.1541,1.0032,-10.2519,24.6794,-4.8092,0,0,0
-0.2383,0.1582,0.9851,-11.7786,22.458,-5.7939,0,0,0
-0.1956,0.1309,0.9871,-11.8473,22.7405,-2.6718,0,0,0
-0.2061,0.1304,0.9526,-10.4198,25.5344,0.145,0,0,0
-0.2585,0.1353,0.9309,-6.7786,25.4351,1.6565,0,0,0
-0.283,0.1519,0.9517,-4.2214,22.7481,-0.0534,0,0,0
-0.2632,0.1655,0.9663,-4.1069,19.7939,1.8244,0,0,0
-0.2849,0.158,0.991,-6.2366,18.5344,3.8168,0,0,0
-0.2898,0.1848,1.0022,-7.4046,17.9389,2.8473,0,0,0
-0.2739,0.157,1.0322,-10.4122,23.3435,0.916,0,0,0
-0.2568,0.1221,1.021,-10.2901,28.2061,-0.6641,0,0,0
-0.2441,0.1167,1.0107,-8.2901,34.0611,0.7252,0,0,0
-0.2539,0.1147,0.9749,-5.4504,39.8092,0.4198,0,0,0
-0.272,0.1172,0.9395,-1.3053,44.0611,2.3588,0,0,0
-0.3066,0.1367,0.9338,0.2977,44.458,4.145,0,0,0
-0.344,0.1536,0.937,-0.6412,38.0305,4.0992,0,0,0
-0.3594,0.1685,0.9421,-4.4504,25.8855,4.3664,0,0,0
-0.3418,0.1335,0.9612,-6.8092,16.6489,5.3817,0,0,0
-0.3398,0.1299,0.9563,-7.5802,10.687,5.8702,0,0,0
-0.324,0.1392,0.9548,-6.855,8.0534,7.4427,0,0,0
-0.3589,0.1541,0.9463,-7.2061,7.2519,7.5573,0,0,0
-0.3447,0.1448,0.9426,-5.916,5.8168,6.7099,0,0,0
-0.3491,0.1375,0.9395,-4.9466,6.7939,7.9771,0,0,0
-0.4077,0.1792,0.926,-6.1069,3.542,9.5649,0,0,0
-0.3606,0.1592,0.968,-8.1221,-3.3435,8.4198,0,0,0
-0.3413,0.1499,0.9788,-11.1985,-5.4962,7.855,0,0,0
-0.3113,0.1167,0.9861,-11.5649,-4.4351,8.5496,0,0,0
-0.2947,0.126,0.9785,-12.374,-1.458,13.771,0,0,0
-0.2927,0.1147,0.9858,-12.9542,-1.0076,17.7252,0,0,0
-0.283,0.1167,1.0002,-14.0458,1.0458,22.2061,0,0,0
-0.2695,0.1104,1.0085,-15.2824,5.4275,24.2137,0,0,0
-0.3022,0.1089,0.9746,-14.7786,9.0534,25.2901,0,0,0
-0.2656,0.0867,1.0044,-13.0763,11.7328,28.2824,0,0,0
-0.3008,0.1165,1.0012,-13.2901,16.2977,32.4122,0,0,0
-0.332,0.1453,0.9868,-17.4809,17.2214,31.1298,0,0,0
-0.3779,0.1553,0.9509,-20.9466,10.4733,29.8626,0,0,0
-0.3757,0.1128,0.9514,-22.5725,3.4809,26.4733,0,0,0
-0.3325,0.1204,0.9292,-20.3435,3.2443,22.0458,0,0,0
-0.3347,0.1028,0.9404,-16.7863,3.2824,23.0076,0,0,0
-0.3093,0.127,0.9687,-16.4504,5.5267,22.5878,0,0,0
-0.3188,0.1707,0.9297,-20.8931,6.3664,24.8321,0,0,0
-0.3484,0.0986,0.9214,-23.1069,7.2519,32.9237,0,0,0
-0.3174,0.0903,0.9092,-16.8702,12.0687,32.4046,0,0,0
-0.3638,0.105,0.9351,-9.8931,13.4504,29.6641,0,0,0
-0.3733,0.1687,0.9458,-11.2061,13.1145,26.8244,0,0,0
-0.3931,0.1882,0.9734,-16.5649,5.4046,24.0305,0,0,0
-0.3933,0.1567,0.9773,-21.4275,-0.9695,21.458,0,0,0
-0.3723,0.1545,0.9497,-23.1908,-2.771,18.0229,0,0,0
-0.3452,0.1189,0.9087,-19.7481,-0.6107,14.1145,0,0,0
-0.325,0.0925,0.9048,-13.3282,3.0611,12.4351,0,0,0
-0.3357,0.103,0.8994,-7.1527,5.6947,10.9084,0,0,0
-0.3638,0.1162,0.9304,-4.7557,5.0458,8.7252,0,0,0
-0.3735,0.1479,0.9695,-6.5878,3.3969,5.7481,0,0,0
-0.374,0.1292,0.9819,-9.1069,2.3588,4.2519,0,0,0
-0.3613,0.1292,0.9631,-11.8779,-0.626,2.9847,0,0,0
-0.3074,0.0886,0.9504,-11.2443,0.4427,4.313,0,0,0
-0.2949,0.0781,0.9355,-7.1832,3.6107,5.3664,0,0,0
-0.2957,0.0657,0.9377,-3.6947,5.1908,6.9542,0,0,0
-0.3188,0.1055,0.97,-2.4656,6.7786,9.4046,0,0,0
-0.3352,0.1028,0.9919,-5.1298,5.9924,10.6565,0,0,0
-0.365,0.1389,0.9819,-9.3435,3.9618,10.5802,0,0,0
-0.3726,0.126,0.9568,-12.1603,1.5038,9.8626,0,0,0
-0.3564,0.0959,0.949,-11.9008,0.8779,7.7176,0,0,0
-0.3281,0.0627,0.9575,-8.9847,2.9695,10.1756,0,0,0
-0.2886,0.0784,0.9768,-6.0382,9.7405,13.5802,0,0,0
-0.3496,0.0886,0.9592,-4.8244,11.6107,13.9237,0,0,0
-0.3782,0.1133,0.9448,-4.9695,5.8015,12.9695,0,0,0
-0.3699,0.1504,0.9429,-8.9008,1.1374,13.7557,0,0,0
-0.3521,0.1211,0.9346,-12.7786,-3.9847,16.3282,0,0,0
-0.3064,0.1091,0.9307,-14.7939,-2.7252,18.4351,0,0,0
-0.3049,0.0754,0.9182,-11.2748,2.5344,23.2366,0,0,0
-0.3425,0.0889,0.9382,-5.7557,7.0458,22.7557,0,0,0
-0.385,0.1265,0.9575,-4.4733,6.9542,18.4351,0,0,0
-0.407,0.1277,0.9827,-5.7634,6.1527,12.6489,0,0,0
-0.4163,0.166,0.9546,-8.3588,-0.4275,7.4427,0,0,0
-0.3914,0.1045,0.9507,-8.4733,-6.0,5.5725,0,0,0
-0.3806,0.1077,0.9226,-5.2595,-6.8779,2.7023,0,0,0
-0.3694,0.0999,0.9062,0.6412,-6.9542,-1.1756,0,0,0
-0.3835,0.1169,0.9258,4.3435,-6.1374,-3.8092,0,0,0
-0.3833,0.1284,0.9495,5.1221,-8.8779,-7.1374,0,0,0
-0.3936,0.1233,0.9514,2.8931,-13.9237,-9.6565,0,0,0
-0.3774,0.1365,0.9768,0.5115,-19.0687,-11.9389,0,0,0
-0.3403,0.1128,1.0044,-2.3664,-17.9389,-12.6412,0,0,0
-0.3206,0.0906,0.9763,-3.9924,-16.5954,-11.7557,0,0,0
-0.3181,0.0916,0.9282,-1.8473,-15.0458,-9.9847,0,0,0
-0.3433,0.1062,0.8916,2.3206,-18.1145,-11.2901,0,0,0
-0.3457,0.1204,0.8965,6.1832,-22.3435,-11.8626,0,0,0
-0.3513,0.1226,0.8972,7.5115,-27.6107,-14.2901,0,0,0
-0.3479,0.1204,0.8994,10.5496,-33.7023,-16.6641,0,0,0
-0.3459,0.1414,0.9292,13.2595,-34.5115,-19.2595,0,0,0
-0.3491,0.1282,0.9585,13.8702,-34.6107,-24.4122,0,0,0
-0.3171,0.1184,0.9675,14.458,-36.1527,-27.5496,0,0,0
-0.269,0.0857,1.0066,16.5725,-32.145,-26.1145,0,0,0
-0.27,0.0737,1.0159,17.229,-28.084,-25.3969,0,0,0
-0.2356,0.1077,1.0308,16.7557,-23.6412,-22.6336,0,0,0
-0.2065,0.0986,1.0447,14.1603,-16.8931,-17.4427,0,0,0
-0.2539,0.0881,1.0344,10.374,-11.8397,-10.9466,0,0,0
-0.2766,0.1223,0.9895,9.1985,-13.2443,-9.687,0,0,0
-0.2644,0.1116,0.9988,9.855,-11.9008,-8.4733,0,0,0
-0.2568,0.1069,1.0049,10.9466,-8.374,-8.2824,0,0,0
-0.2683,0.1162,1.0225,11.5573,-3.9695,-8.1832,0,0,0
-0.2783,0.1372,1.0352,9.6947,-1.145,-9.0458,0,0,0
-0.2751,0.1387,1.0354,5.2443,-0.1374,-8.084,0,0,0
-0.2751,0.1421,1.021,0.4809,-1.5954,-5.3282,0,0,0
-0.2886,0.1357,0.9836,-1.3969,-3.8397,-5.0305,0,0,0
-0.2754,0.1096,0.9714,1.0,-2.9695,-6.687,0,0,0
-0.2759,0.1145,0.9666,4.0992,-0.3969,-8.0229,0,0,0
-0.2678,0.1108,0.9744,5.5267,0.8015,-8.3282,0,0,0
-0.2715,0.134,0.9888,5.1679,0.313,-6.8779,0,0,0
-0.2749,0.1311,0.998,2.9847,0.5038,-5.8397,0,0,0
-0.2625,0.1174,1.0173,0.3969,0.2748,-4.0992,0,0,0
-0.26,0.1101,1.0247,-2.0763,-0.1603,-2.6565,0,0,0
-0.2625,0.1108,1.0203,-4.145,-0.7939,-1.0611,0,0,0
-0.2617,0.1138,1.0088,-6.4656,0.2061,0.4275,0,0,0
-0.3005,0.1375,0.9792,-8.4046,-3.2214,-0.1679,0,0,0
-0.2908,0.1294,0.9634,-8.4198,-6.0763,-1.5191,0,0,0
-0.2847,0.1135,0.9482,-5.3893,-5.0916,-2.1908,0,0,0
-0.28,0.1067,0.9478,-0.084,-4.7939,-3.8779,0,0,0
-0.2585,0.1221,0.9626,2.5267,-2.2595,-3.3053,0,0,0
-0.2466,0.1155,0.9866,2.4198,0.374,0.2061,0,0,0
-0.2649,0.1162,0.9917,1.5802,1.7252,0.9542,0,0,0
-0.2786,0.1348,0.9863,1.4198,1.7481,0.9771,0,0,0
-0.2905,0.1426,0.9778,-0.0305,1.1756,-0.9389,0,0,0
-0.2903,0.1426,0.9712,0.145,1.771,-2.7863,0,0,0
-0.3013,0.1375,0.9504,1.5802,1.8321,-5.9084,0,0,0
-0.3025,0.1526,0.9431,2.8397,0.3359,-8.916,0,0,0
-0.2725,0.127,0.9541,4.084,-0.7252,-11.542,0,0,0
-0.2756,0.1396,0.9541,4.7939,-0.9924,-11.2977,0,0,0
-0.2764,0.1221,0.969,6.5496,-3.7405,-12.5878,0,0,0
-0.2698,0.1462,0.9629,6.3969,-3.626,-15.7023,0,0,0
-0.2817,0.157,0.9617,5.5802,-5.9466,-16.7252,0,0,0
-0.2905,0.1458,0.9282,16.1221,-6.7328,-24.6412,0,0,0
-0.3079,0.1711,0.9285,19.0534,-8.0458,-28.0916,0,0,0
-0.3027,0.1799,0.8989,19.6031,-13.3511,-26.0,0,0,0
-0.3369,0.2097,0.916,21.9771,-16.7252,-27.6183,0,0,0
-0.3555,0.2009,0.8877,27.6718,-17.2137,-36.7634,0,0,0
-0.3149,0.1406,0.9326,39.2824,-17.0305,-47.3206,0,0,0
-0.2874,0.1677,0.9761,47.2901,-12.3511,-55.8092,0,0,0
-0.3223,0.1909,1.0149,51.6412,-8.6565,-65.3283,0,0,0
-0.3235,0.2053,1.0356,52.0687,-7.5954,-74.1145,0,0,0
-0.2412,0.2322,1.0916,46.0534,-8.4504,-68.084,0,0,0
-0.2563,0.1572,1.114,33.0229,-8.3282,-55.3588,0,0,0
-0.1438,0.2148,1.0764,19.3664,-10.7405,-38.1908,0,0,0
-0.1887,0.1809,1.05,9.3969,-4.7023,-30.4122,0,0,0
-0.2888,0.1633,0.9702,6.5802,-7.2519,-29.4275,0,0,0
-0.2544,0.158,0.9646,6.9008,-12.229,-27.0687,0,0,0
-0.2239,0.1482,0.9856,5.6336,-11.7252,-24.7863,0,0,0
-0.25,0.1497,0.967,5.1145,-9.7863,-20.7252,0,0,0
-0.2551,0.1274,0.9819,5.9618,-8.8473,-18.084,0,0,0
-0.2805,0.2078,0.9536,7.5115,-6.4733,-20.916,0,0,0
-0.3079,0.1997,0.9331,8.7023,-7.4656,-25.8244,0,0,0
-0.2986,0.1892,0.9434,9.9008,-9.9847,-28.9771,0,0,0
-0.2354,0.1899,0.9795,9.9313,-8.7939,-30.6489,0,0,0
-0.2339,0.1731,0.9771,9.2824,-8.0229,-28.4427,0,0,0
-0.2412,0.1929,0.9902,5.6718,-11.0305,-23.0305,0,0,0
-0.1875,0.2063,1.0095,1.7252,-14.4275,-13.9084,0,0,0
-0.2241,0.1851,1.0181,-2.9008,-8.8473,-12.0534,0,0,0
-0.2891,0.1707,0.9707,-1.8626,-11.2595,-12.7099,0,0,0
-0.293,0.2029,0.9548,-0.4656,-14.3588,-15.0,0,0,0
-0.3306,0.2139,0.9397,-1.0992,-18.4504,-17.6489,0,0,0
-0.3164,0.1995,0.9558,0.1145,-24.2748,-21.5114,0,0,0
-0.2288,0.1843,0.991,0.6947,-24.3664,-24.1221,0,0,0
-0.1562,0.1587,1.0251,-0.8397,-17.9771,-20.5954,0,0,0
-0.1584,0.1675,1.0049,-3.5725,-12.6031,-14.2137,0,0,0
-0.1619,0.1523,1.0078,-4.5191,-9.2214,-8.7023,0,0,0
-0.2092,0.1653,1.0037,-4.6947,-7.8855,-6.1832,0,0,0
-0.2236,0.1731,0.9939,-6.2443,-8.6183,-5.8931,0,0,0
-0.2495,0.1724,0.9602,-6.2366,-8.0611,-3.8931,0,0,0
-0.2444,0.1848,0.9521,-6.0229,-13.8092,-5.9237,0,0,0
-0.2234,0.1553,0.9761,-3.916,-11.9542,-8.4656,0,0,0
-0.1865,0.1553,0.9961,-2.4351,-4.9466,-7.8321,0,0,0
-0.2061,0.1555,1.0088,-0.0916,0.5802,-6.2061,0,0,0
-0.2673,0.1953,0.9822,-0.2137,-0.458,-7.9389,0,0,0
-0.2908,0.1943,0.9819,0.4504,-5.7786,-10.9771,0,0,0
-0.2659,0.2268,1.01,0.3664,-10.0,-14.9924,0,0,0
-0.2334,0.1943,1.0239,-2.5115,-9.0687,-17.6107,0,0,0
-0.2029,0.1824,0.9893,-4.5191,-6.084,-16.3359,0,0,0
-0.2214,0.1567,0.9475,-2.6718,-2.8397,-15.0992,0,0,0
-0.2112,0.1523,0.9441,2.5267,-0.3893,-16.8321,0,0,0
-0.2393,0.178,0.9746,4.4733,-1.0611,-15.8702,0,0,0
-0.2144,0.1787,1.0146,3.0687,-0.3817,-16.7405,0,0,0
-0.2358,0.1829,1.0156,1.1832,-0.2137,-17.0229,0,0,0
-0.2166,0.1775,1.02,-1.2901,0.1527,-16.1069,0,0,0
-0.2485,0.167,1.0005,-2.5496,-0.2901,-14.3206,0,0,0
-0.2173,0.1814,0.9832,-2.916,-1.1985,-13.3969,0,0,0
-0.209,0.1523,0.9885,-1.7328,0.6336,-10.6718,0,0,0
-0.2239,0.1694,0.9817,-1.4885,1.1679,-8.2672,0,0,0
-0.2488,0.1831,0.9702,-1.2748,1.7328,-8.2214,0,0,0
-0.2781,0.1917,0.9534,0.0229,-1.084,-9.5267,0,0,0
-0.2456,0.1843,0.9951,1.9771,0.0687,-12.7634,0,0,0
-0.2688,0.2009,0.98,1.8168,1.3206,-16.9618,0,0,0
-0.2488,0.1787,0.988,1.8626,0.7939,-22.0611,0,0,0
-0.2119,0.1604,0.9966,2.7405,1.5725,-23.0382,0,0,0
-0.2029,0.1526,0.9941,0.4962,4.4198,-21.0992,0,0,0
-0.2073,0.1514,0.991,-0.6412,2.374,-18.8015,0,0,0
-0.2222,0.1724,0.9998,-1.4504,0.8168,-18.0687,0,0,0
-0.2134,0.1553,1.0156,-2.8244,2.6412,-16.626,0,0,0
-0.219,0.1572,1.0061,-2.9771,5.4809,-16.5878,0,0,0
-0.2542,0.1653,0.97,-1.3817,6.7099,-18.3664,0,0,0
-0.2458,0.1777,0.959,1.4275,6.8092,-22.1145,0,0,0
-0.2273,0.1833,0.9692,4.855,9.7405,-24.6947,0,0,0
-0.2703,0.1667,0.9827,6.5954,12.0382,-26.7252,0,0,0
-0.2961,0.1902,1.0044,6.3969,12.0076,-30.2061,0,0,0
-0.2751,0.1814,1.0105,3.3053,12.4656,-33.1603,0,0,0
-0.2681,0.1602,0.9646,2.313,11.7099,-34.2366,0,0,0
-0.1875,0.1218,0.9578,3.9695,11.855,-30.0229,0,0,0
-0.1772,0.1062,0.9736,7.3969,16.9313,-25.6718,0,0,0
-0.2126,0.1304,0.9666,11.1679,19.8244,-21.0076,0,0,0
-0.2935,0.1548,0.9954,10.5191,19.1756,-19.3588,0,0,0
-0.3162,0.1855,0.9993,5.9313,15.7863,-18.3359,0,0,0
-0.3118,0.1936,0.9988,4.9313,16.4351,-18.4275,0,0,0
-0.4043,0.2009,0.9531,-3.3435,8.4809,-15.4656,0,0,0
-0.3069,0.1743,0.9573,-8.1603,3.0916,-12.3664,0,0,0
-0.2559,0.1741,0.9509,-7.4275,3.2901,-11.3206,0,0,0
-0.2515,0.1328,0.9761,-8.3893,5.3053,-8.1527,0,0,0
-0.2476,0.1367,0.9819,-8.6183,7.4122,-7.2901,0,0,0
-0.2693,0.1299,0.9727,-6.9466,9.4351,-6.0382,0,0,0
-0.1968,0.1562,0.9934,-6.5649,11.5191,-5.1145,0,0,0
-0.2029,0.1487,1.0352,-5.1908,17.8397,7.6412,0,0,0
-0.3789,0.2253,0.9104,-4.7023,15.1756,0.5878,0,0,0
-0.4407,0.1892,0.9106,-2.7863,6.5115,-17.0534,0,0,0
-0.3096,0.1516,0.9531,0.771,-1.5573,-18.1756,0,0,0
-0.2161,0.1367,1.0171,-3.6336,0.2977,-10.2901,0,0,0
-0.2646,0.1675,0.9639,-4.8779,0.1374,-3.3817,0,0,0
-0.3074,0.1677,0.9585,-3.2824,0.6565,-4.6641,0,0,0
-0.3059,0.1616,0.9741,-2.5191,1.1298,-10.3282,0,0,0
-0.2744,0.1902,0.9683,-3.7863,1.3817,-8.6565,0,0,0
-0.2373,0.1443,0.9946,-7.374,4.374,-7.1069,0,0,0
-0.2512,0.1204,0.9846,-7.3588,8.7481,-4.3282,0,0,0
-0.2432,0.0967,0.9878,-4.1679,12.2214,-0.1527,0,0,0
-0.2761,0.1216,1.0127,-2.7481,16.6718,2.5038,0,0,0
-0.3083,0.1699,1.0044,-3.0153,23.2366,2.6641,0,0,0
-0.3796,0.175,0.9565,-4.313,35.4046,0.1603,0,0,0
-0.2852,0.1233,0.9243,-3.5344,36.6031,-0.8397,0,0,0
-0.199,0.1921,0.9819,-1.8702,44.6794,0.0534,0,0,0
-0.2249,0.0947,1.0317,-4.8092,50.6412,5.4656,0,0,0
-0.2402,0.0972,0.9585,-5.4198,53.9008,10.626,0,0,0
-0.3352,0.0996,0.9011,-0.9695,50.4504,13.6489,0,0,0
-0.3972,0.1736,0.9976,1.2824,47.4351,14.4198,0,0,0
-0.5073,0.1873,0.9666,-6.0611,40.3664,6.5573,0,0,0
-0.4087,0.1489,0.9641,-6.6183,35.9618,1.7405,0,0,0
-0.4019,0.1438,0.9424,-3.9771,32.8321,-0.9389,0,0,0
-0.373,0.1433,0.9143,-2.0229,34.7634,-4.1145,0,0,0
-0.3921,0.1401,0.9036,1.5649,37.229,-6.1832,0,0,0
-0.4187,0.1453,0.9019,4.5725,37.145,-7.8702,0,0,0
-0.4639,0.1648,0.8762,6.2214,33.9618,-9.374,0,0,0
-0.5034,0.1802,0.8674,5.7634,27.2595,-10.4885,0,0,0
-0.4939,0.1741,0.884,4.2137,22.229,-11.9618,0,0,0
-0.4626,0.1562,0.8936,3.4427,18.1679,-11.4122,0,0,0
-0.4568,0.1543,0.9128,1.9237,15.4275,-9.8397,0,0,0
-0.4504,0.1514,0.9165,1.2214,13.9847,-10.8931,0,0,0
-0.4636,0.1704,0.9009,0.8321,11.1908,-11.3893,0,0,0
-0.4631,0.1562,0.9089,-1.7176,7.7557,-11.4046,0,0,0
-0.4395,0.1519,0.9138,-2.3282,5.6336,-10.9924,0,0,0
-0.4329,0.1348,0.8906,-1.2214,4.8779,-11.4351,0,0,0
-0.4268,0.1201,0.8848,1.5878,5.7176,-9.7481,0,0,0
-0.4646,0.1377,0.8816,3.2366,5.6183,-8.0534,0,0,0
-0.4856,0.156,0.8887,3.3893,3.6489,-8.771,0,0,0
-0.4773,0.1636,0.8889,4.4046,1.1069,-11.7481,0,0,0
-0.4512,0.1497,0.9023,4.2901,-2.1908,-15.084,0,0,0
-0.48,0.1665,0.8779,4.7099,-6.0229,-16.4885,0,0,0
-0.469,0.1521,0.8757,6.0763,-9.2061,-16.8473,0,0,0
-0.4768,0.1873,0.8909,6.8321,-13.1603,-17.4733,0,0,0
-0.5022,0.1665,0.886,8.1679,-14.6336,-21.4275,0,0,0
-0.4976,0.1479,0.8992,10.1679,-17.4351,-24.0382,0,0,0
-0.4631,0.1719,0.9167,8.2214,-16.0534,-27.5496,0,0,0
-0.4094,0.1545,0.9233,6.4198,-14.2519,-27.9695,0,0,0
-0.4224,0.1448,0.9048,5.855,-14.9924,-24.9084,0,0,0
-0.4321,0.1355,0.9114,4.4809,-15.2519,-23.7634,0,0,0
-0.4231,0.1499,0.9265,5.1985,-16.0687,-26.3664,0,0,0
-0.3887,0.1287,0.9448,7.0611,-15.0611,-26.6794,0,0,0
-0.4194,0.1384,0.9514,6.0534,-12.7023,-26.7328,0,0,0
-0.4089,0.1289,0.9497,5.6718,-11.7252,-27.2977,0,0,0
-0.4136,0.1377,0.9426,5.2595,-11.374,-24.2901,0,0,0
-0.4253,0.1409,0.9412,2.5878,-11.0458,-23.8626,0,0,0
-0.3459,0.1133,0.9348,3.2595,-8.2061,-22.687,0,0,0
-0.3269,0.1006,0.9519,5.0763,-0.771,-20.0,0,0,0
-0.3811,0.136,0.9443,4.7863,4.0,-19.4504,0,0,0
-0.3918,0.1194,0.9382,3.2901,4.9847,-18.0153,0,0,0
-0.4048,0.1245,0.9453,0.9237,5.6641,-14.8473,0,0,0
-0.4136,0.1262,0.9175,-0.6565,3.9695,-11.1756,0,0,0
-0.4182,0.1084,0.9109,-1.0992,2.3206,-6.6412,0,0,0
-0.4131,0.1177,0.9226,-1.1298,2.7557,-2.7328,0,0,0
-0.4268,0.1223,0.926,-1.771,2.6565,0.5344,0,0,0
-0.4333,0.1389,0.9231,-1.9237,3.0305,2.1374,0,0,0
-0.4326,0.1309,0.9436,-2.5191,2.8168,2.626,0,0,0
-0.4111,0.1272,0.9456,-5.2366,2.458,5.2214,0,0,0
-0.4121,0.1133,0.9402,-8.1908,1.4504,10.8702,0,0,0
-0.3774,0.1082,0.9443,-11.4962,1.7099,20.0305,0,0,0
-0.3811,0.1089,0.9084,-20.1908,-3.3588,37.3969,0,0,0
-0.3704,0.0938,0.8994,-28.1374,-10.5038,59.9237,0,0,0
-0.3691,0.0928,0.9216,-30.5725,-15.4427,75.2595,0,0,0
-0.3728,0.116,0.9583,-26.7786,-11.6718,72.8855,0,0,0
-0.4004,0.1252,0.9421,-21.8779,-5.6031,65.9695,0,0,0
-0.4397,0.1245,0.8904,-19.3969,-8.3664,63.4427,0,0,0
-0.5039,0.147,0.8938,-17.3206,-12.9008,65.3359,0,0,0
-0.4758,0.1641,0.9556,-19.5649,-15.8092,59.9924,0,0,0
-0.4519,0.1643,0.9172,-20.8931,-17.0534,54.7634,0,0,0
-0.4158,0.1069,0.9136,-18.8397,-20.8626,55.9695,0,0,0
-0.4292,0.1614,0.8989,-16.4962,-20.2748,56.0534,0,0,0
-0.4109,0.1318,0.8872,-15.2748,-22.9924,52.0229,0,0,0
-0.3594,0.123,0.9167,-9.4351,-23.0611,51.1527,0,0,0
-0.3196,0.1367,0.946,-5.2137,-15.6718,43.9771,0,0,0
-0.3345,0.1462,0.938,-3.0534,-9.6107,40.5878,0,0,0
-0.3325,0.1458,0.9585,-3.7557,-8.4275,42.5573,0,0,0
-0.3669,0.189,0.9614,-7.7023,-7.2977,44.2977,0,0,0
-0.4492,0.2012,0.925,-13.8321,-13.6489,47.687,0,0,0
-0.4319,0.1616,0.9446,-16.9389,-23.0305,51.1298,0,0,0
-0.4692,0.1763,0.9363,-19.229,-34.771,54.7023,0,0,0
-0.3,0.2051,0.9795,-26.8931,-33.6183,57.2137,0,0,0
-0.2722,0.1902,0.9858,-29.8702,-31.855,58.1527,0,0,0
-0.3669,0.1802,0.9441,-31.1603,-36.3664,56.8092,0,0,0
-0.6785,0.2424,0.7529,-31.7099,-71.2901,50.1756,0,0,0
0.1287,0.0989,1.3992,-47.9237,-49.9237,55.9389,0,0,0
-0.3569,0.1475,0.9021,-43.0458,-24.9084,55.626,0,0,0
-0.2991,0.1653,0.8994,-39.5725,-28.8702,54.9924,0,0,0
-0.3459,0.2031,0.8625,-33.542,-33.7786,47.374,0,0,0
-0.3391,0.1582,0.8962,-26.1298,-30.0229,31.9389,0,0,0
-0.3389,0.156,0.9077,-19.374,-28.0534,20.2824,0,0,0
-0.2749,0.1458,0.9485,-12.1832,-19.7557,9.2595,0,0,0
-0.2542,0.1343,0.9563,-5.0763,-11.1221,-0.0382,0,0,0
-0.2791,0.1577,0.9658,0.2443,-6.6336,-6.0305,0,0,0
-0.2849,0.1724,1.0164,0.9618,-6.5802,-10.1908,0,0,0
-0.2886,0.1611,1.0264,-2.0687,-6.3588,-13.6565,0,0,0
-0.269,0.146,1.02,-2.9695,-6.9924,-15.0687,0,0,0
-0.2632,0.1428,1.0076,-5.1145,-8.145,-13.313,0,0,0
-0.2429,0.1265,0.99,-6.3053,-8.9542,-10.1298,0,0,0
-0.2507,0.1245,0.9646,-5.2443,-9.7099,-8.626,0,0,0
-0.2683,0.1204,0.9736,-1.771,-10.8397,-8.855,0,0,0
-0.2588,0.1299,1.0037,-1.2519,-11.1221,-9.2824,0,0,0
-0.2192,0.1145,1.0127,-2.1832,-7.8321,-5.4885,0,0,0
-0.2334,0.1226,0.9888,-2.9695,-5.5115,-2.7099,0,0,0
-0.2581,0.1128,0.9736,-0.458,-4.1832,-4.0916,0,0,0
-0.2612,0.1296,0.9773,1.5496,-3.6412,-5.9695,0,0,0
-0.2593,0.1348,0.9795,1.9084,-3.5344,-8.5954,0,0,0
-0.2942,0.1494,0.9783,1.2519,-5.9389,-8.9542,0,0,0
-0.3105,0.1685,0.9854,-0.9618,-9.5115,-11.6031,0,0,0
-0.281,0.1531,0.988,-2.7099,-12.9237,-14.5725,0,0,0
-0.2517,0.1333,0.9878,-4.0076,-13.7023,-13.6031,0,0,0
-0.2266,0.1252,0.9868,-2.6565,-10.9008,-13.8702,0,0,0
-0.2214,0.1165,0.9897,-0.6412,-8.4504,-14.1298,0,0,0
-0.22,0.1177,0.9873,2.7023,-5.4427,-16.4809,0,0,0
-0.2166,0.1194,0.9797,7.6183,-1.6718,-19.0305,0,0,0
-0.24,0.1191,0.9983,12.771,2.4351,-24.5191,0,0,0
-0.2661,0.1589,1.0176,13.0916,3.3817,-27.1298,0,0,0
-0.2605,0.1345,1.0378,10.7328,4.5725,-29.3817,0,0,0
-0.2529,0.1589,1.021,5.6641,1.7939,-28.6947,0,0,0
-0.2249,0.1567,1.0078,0.6107,-1.5573,-23.0611,0,0,0
-0.229,0.1277,0.9829,-2.0687,-1.5802,-18.3588,0,0,0
-0.2385,0.125,0.9429,-0.0229,-2.2595,-17.3282,0,0,0
-0.2446,0.1069,0.9424,5.7328,-2.1221,-18.5191,0,0,0
-0.2234,0.1301,0.9502,10.2824,-1.5878,-21.0458,0,0,0
-0.2991,0.1296,0.9553,15.0076,-1.542,-24.6489,0,0,0
-0.3145,0.1267,0.9883,17.374,-1.4046,-30.9618,0,0,0
-0.2644,0.1348,0.9963,17.0153,0.1069,-34.7863,0,0,0
-0.2668,0.1426,0.9946,14.3588,-3.4962,-29.4733,0,0,0
-0.1992,0.1501,1.0054,8.855,-4.916,-24.0076,0,0,0
-0.2422,0.1084,0.9985,7.6565,-6.5115,-19.3282,0,0,0
-0.249,0.1289,0.9629,8.2519,-10.0,-14.6794,0,0,0
-0.2534,0.1548,0.9832,6.1756,-11.6031,-10.145,0,0,0
-0.252,0.1575,0.9951,2.9618,-11.4275,-10.5725,0,0,0
-0.2097,0.1335,0.9937,2.4885,-7.1527,-10.2214,0,0,0
-0.2024,0.1235,0.9917,3.3282,-1.7557,-9.4427,0,0,0
-0.2146,0.1191,0.9812,4.5115,1.2137,-8.4427,0,0,0
-0.2556,0.1299,0.9844,5.5802,1.0305,-7.084,0,0,0
-0.2969,0.1602,0.9937,4.5878,0.3969,-7.4962,0,0,0
-0.272,0.1716,1.012,0.5802,-4.374,-5.7099,0,0,0
-0.2346,0.1602,1.0176,-4.0763,-5.2443,-2.6031,0,0,0
-0.2559,0.144,0.9895,-6.1221,-6.3664,-2.0534,0,0,0
-0.2224,0.1248,0.9863,-3.6947,-4.916,-2.9924,0,0,0
-0.1968,0.1179,0.9897,-1.5802,-1.5267,-0.5954,0,0,0
-0.2354,0.1348,0.9875,-1.0611,0.5267,0.0687,0,0,0
-0.2441,0.1333,0.9819,0.4275,0.4733,-0.6412,0,0,0
-0.2458,0.1379,0.9812,1.1145,0.7634,0.2061,0,0,0
-0.2813,0.1548,0.9761,0.7176,0.6565,-0.1603,0,0,0
-0.2715,0.147,0.9934,0.5802,-2.1221,-0.771,0,0,0
-0.2375,0.1372,1.0051,0.4427,-2.3588,-0.9237,0,0,0
-0.2378,0.1367,0.9873,-0.626,-2.9695,0.7634,0,0,0
-0.2393,0.0947,0.9673,2.1832,-4.6718,1.5954,0,0,0
0.1479,0.1033,1.2761,7.9237,-3.5878,9.1145,0,0,0
-0.3062,0.1243,0.9426,6.1221,-6.4427,-1.7023,0,0,0
-0.2222,0.1252,0.9646,9.1221,-3.145,1.7634,0,0,0
-0.2368,0.1343,0.9751,9.916,-2.2443,7.771,0,0,0
-0.2437,0.1377,0.9768,7.542,-2.8779,12.9924,0,0,0
-0.1458,0.1147,0.9968,2.2214,-7.4275,31.2901,0,0,0
-0.0386,0.0605,1.0876,1.1679,1.4046,50.1298,0,0,0
-0.1475,0.1614,1.0383,-2.9313,5.2214,60.9542,0,0,0
-0.2397,0.2161,1.0178,-8.7252,3.6794,65.2748,0,0,0
-0.2385,0.1738,1.0232,-17.2519,-6.0763,73.1221,0,0,0
-0.094,0.1086,1.0688,-28.2214,-0.5954,92.9008,0,0,0
-0.1548,0.1375,1.0127,-29.2595,9.2366,101.9771,0,0,0
-0.3013,0.1658,0.9187,-21.8931,11.7939,94.7023,0,0,0
-0.3201,0.2012,0.9097,-14.9847,5.1069,80.1069,0,0,0
-0.2651,0.1868,0.9587,-12.3893,1.4733,73.3359,0,0,0
-0.2859,0.1978,0.9495,-11.458,0.9389,71.5496,0,0,0
-0.3201,0.2124,0.9607,-8.9466,-3.1908,64.4351,0,0,0
-0.3186,0.2207,0.9883,-6.6565,-4.9389,47.1908,0,0,0
-0.2676,0.1995,0.9807,-5.6489,-8.6565,36.2061,0,0,0
-0.2075,0.1787,0.9993,-2.7252,-6.8244,31.3588,0,0,0
-0.1995,0.2014,0.9927,-1.0687,-2.3664,26.7176,0,0,0
-0.2417,0.1975,0.957,1.2519,-0.9008,22.084,0,0,0
-0.2446,0.1794,0.9568,2.4198,-2.4504,19.3282,0,0,0
-0.2021,0.2039,0.9871,2.5191,-1.7176,16.7634,0,0,0
-0.1895,0.1948,1.0017,1.4198,-0.9084,16.8244,0,0,0
-0.2031,0.2048,0.9937,-0.4275,-0.7176,16.458,0,0,0
-0.384,0.2209,0.8813,1.0153,-28.1069,17.6336,0,0,0
-0.4177,0.2463,0.894,-6.0992,-23.7557,17.4275,0,0,0
-0.3489,0.2554,0.9121,-13.5496,-2.6565,14.7252,0,0,0
-0.2358,0.1836,0.9453,-9.6183,-12.5573,14.5344,0,0,0
-0.1648,0.175,0.9934,-10.0687,-20.0382,20.4733,0,0,0
-0.1099,0.1838,1.0203,-13.9313,-17.084,23.8931,0,0,0
-0.1528,0.1729,0.9929,-15.3588,-15.0687,24.8626,0,0,0
-0.2073,0.1641,0.9666,-11.6794,-14.7863,23.6031,0,0,0
-0.1902,0.1599,0.9888,-9.1756,-16.3435,22.2519,0,0,0
-0.1765,0.1582,0.9783,-6.7405,-16.6718,21.5725,0,0,0
-0.2275,0.1633,1.0161,-4.5344,-15.8473,18.9313,0,0,0
-0.2224,0.2375,1.0015,-5.8321,-14.084,9.3359,0,0,0
-0.2139,0.1895,0.978,-7.9008,-22.313,8.6794,0,0,0
-0.145,0.1753,1.0022,-8.2977,-28.1832,9.2595,0,0,0
-0.1836,0.2051,0.9998,-9.5038,-33.0763,9.2901,0,0,0
-0.1909,0.2002,0.9978,-12.0382,-36.6565,7.0305,0,0,0
-0.8352,0.2209,0.6697,-9.5954,-86.1374,1.0992,0,0,0
-0.3015,0.2026,0.9453,-18.9084,-103.2366,-0.7634,0,0,0
-0.8179,0.179,0.5916,-10.6794,-94.8015,-4.9847,0,0,0
-0.3582,0.1189,0.7092,-20.0916,-94.5725,0.3588,0,0,0
-0.2341,0.2571,1.0735,-15.4885,-63.8473,-1.4504,0,0,0
-0.6196,0.2402,0.6011,-14.1908,-68.6718,-8.7405,0,0,0
-0.3479,0.2129,0.8101,-9.6183,-54.1221,-13.9847,0,0,0
0.3279,0.1406,1.1592,-14.8931,-28.8321,-9.1145,0,0,0
-0.187,0.1741,0.8437,-9.3664,-22.6031,-11.1832,0,0,0
0.0059,0.0544,0.9165,0.8779,-19.4275,-6.4427,0,0,0
0.0305,0.103,1.0505,7.5649,-9.3969,-1.7099,0,0,0
-0.0049,0.1499,1.0959,4.0992,-1.6412,-0.3282,0,0,0
-0.0408,0.1479,1.0576,2.0992,3.8321,-1.2748,0,0,0
-0.0701,0.1565,1.0413,2.145,4.7405,-4.1985,0,0,0
-0.0374,0.1631,1.0627,0.8473,5.145,-6.8931,0,0,0
-0.0032,0.1487,1.0493,-2.0076,7.8931,-5.0687,0,0,0
-0.0129,0.1392,1.0164,-0.6489,9.458,-2.0305,0,0,0
-0.0405,0.1694,0.9985,0.4427,10.5344,-1.3511,0,0,0
-0.0547,0.1667,1.0217,2.0229,12.5954,-3.9695,0,0,0
-0.031,0.1541,1.0261,3.9847,17.1298,-7.0,0,0,0
-0.0352,0.1501,1.031,7.3435,22.6947,-8.6336,0,0,0
-0.0527,0.1763,1.0071,10.2977,27.5954,-13.3435,0,0,0
-0.0713,0.175,1.0002,14.6183,31.5114,-19.771,0,0,0
-0.0801,0.1802,0.9929,19.5267,31.7939,-31.4962,0,0,0
-0.0771,0.1902,0.9951,24.7939,36.1985,-42.0763,0,0,0
-0.1033,0.1797,1.0139,29.1985,40.0305,-50.4198,0,0,0
-0.1167,0.2192,1.0242,31.8855,43.1985,-56.9847,0,0,0
-0.1509,0.2429,1.032,31.5038,44.7328,-65.2901,0,0,0
-0.1936,0.2646,1.0088,30.8244,45.0458,-74.2595,0,0,0
-0.2515,0.2529,0.9739,28.5496,39.2137,-80.3206,0,0,0
-0.146,0.2075,0.9856,26.542,37.542,-78.0076,0,0,0
-0.032,0.114,0.9397,27.8397,35.9695,-67.0534,0,0,0
-0.04,0.114,0.9492,33.1145,40.3511,-54.7405,0,0,0
-0.1362,0.1497,0.9761,36.855,36.9466,-48.8702,0,0,0
-0.1716,0.2065,1.0198,33.458,39.5954,-47.1756,0,0,0
-0.2402,0.2393,1.0095,28.4427,44.313,-46.0229,0,0,0
-0.3215,0.2537,0.9966,25.7557,28.3053,-48.8702,0,0,0
-0.3372,0.312,0.9592,19.4656,17.3511,-55.2061,0,0,0
-0.2673,0.2671,0.948,14.5649,8.8397,-60.4962,0,0,0
-0.2341,0.1997,0.9539,17.4962,1.9542,-58.4351,0,0,0
-0.1741,0.1802,0.9785,20.0,5.4351,-53.9466,0,0,0
-0.156,0.1824,0.9731,19.2443,8.5496,-45.6336,0,0,0
-0.187,0.2065,1.0039,21.1069,12.3206,-39.8397,0,0,0
-0.2632,0.2441,0.9995,16.9084,8.8626,-34.8855,0,0,0
-0.2642,0.2493,0.9761,11.2748,2.6794,-31.6183,0,0,0
-0.2598,0.1956,0.9526,10.6031,-1.458,-30.9847,0,0,0
-0.249,0.2192,0.9497,13.3511,-3.1603,-30.1679,0,0,0
-0.2729,0.2349,0.9551,12.4809,-6.084,-27.0305,0,0,0
-0.2261,0.2583,0.978,8.1832,-11.5344,-23.855,0,0,0
-0.2466,0.2527,0.978,2.9008,-11.1069,-19.5954,0,0,0
-0.2385,0.2261,0.9595,-0.0076,-11.1756,-16.2595,0,0,0
-0.2439,0.2178,0.9192,0.9847,-11.8473,-14.8397,0,0,0
-0.2847,0.2158,0.9109,5.8626,-17.7176,-12.9237,0,0,0
-0.3218,0.2571,0.9363,6.2748,-25.8244,-15.3969,0,0,0
-0.2144,0.2554,0.9912,5.2672,-29.3206,-17.2214,0,0,0
-0.249,0.2107,0.9927,4.7099,-22.9084,-14.7786,0,0,0
-0.1782,0.2568,0.9927,1.5573,-21.5725,-8.5344,0,0,0
-0.1904,0.2156,0.9802,-2.6565,-21.0305,-1.229,0,0,0
-0.2163,0.2405,0.9492,-6.2137,-26.1756,8.7405,0,0,0
-0.2227,0.2329,0.9629,-6.0763,-28.458,10.4122,0,0,0
-0.1936,0.23,0.9861,-5.5191,-28.2595,10.9847,0,0,0
-0.3103,0.2952,0.9824,-8.5038,-36.2443,8.7252,0,0,0
-0.2354,0.2825,1.0115,-17.1603,-38.2137,6.0458,0,0,0
-0.1885,0.2227,0.9807,-19.5344,-36.7481,2.4504,0,0,0
-0.1638,0.219,0.958,-16.5573,-42.3893,4.4885,0,0,0
-0.1426,0.2327,0.9695,-20.084,-40.8015,12.4046,0,0,0
-0.1409,0.2058,0.9875,-22.5725,-36.1908,11.5191,0,0,0
-0.196,0.2063,0.9412,-14.5267,-36.7252,1.0229,0,0,0
-0.1345,0.2187,0.9604,-7.1374,-38.687,-0.855,0,0,0
-0.0842,0.2061,0.9966,-6.8321,-37.3206,-1.374,0,0,0
-0.0757,0.24,1.0422,-4.4427,-36.7099,-1.2595,0,0,0
0.0039,0.2268,1.0964,-6.4733,-31.6031,1.2137,0,0,0
-0.0293,0.2583,1.0454,-8.4275,-18.6794,-2.5878,0,0,0
-0.0063,0.1477,0.9888,-5.4351,-12.4656,-0.6107,0,0,0
-0.0466,0.1951,1.0254,0.229,-10.4122,8.6718,0,0,0
-0.0889,0.2324,1.0613,-4.5878,-5.9618,7.4427,0,0,0
-0.1292,0.2329,1.0291,-7.8473,-3.2519,6.0763,0,0,0
-0.1396,0.228,1.0127,-7.9542,0.6412,3.4962,0,0,0
-0.1653,0.23,0.9727,-6.4885,3.4122,-2.5191,0,0,0
-0.1282,0.2209,0.9739,-4.4351,1.9771,-5.6565,0,0,0
-0.0981,0.2024,1.0198,-2.4656,4.9771,-6.9466,0,0,0
-0.1116,0.2263,1.0339,-3.6718,4.9237,-5.5496,0,0,0
-0.0986,0.2231,1.0527,-7.1832,4.5725,-3.313,0,0,0
-0.1145,0.2056,1.0178,-9.8397,5.3435,-1.6947,0,0,0
-0.0867,0.1777,1.0076,-9.1374,7.3282,0.3359,0,0,0
-0.1028,0.1926,0.9907,-8.3359,9.4885,1.687,0,0,0
-0.1104,0.1946,1.0085,-9.2595,10.1298,2.5496,0,0,0
-0.0989,0.1982,1.0134,-10.3511,12.4275,2.2748,0,0,0
-0.1143,0.197,1.0115,-11.4885,14.8473,3.9695,0,0,0
-0.1399,0.1995,1.0112,-12.8092,14.5802,5.1069,0,0,0
-0.1182,0.2017,1.0339,-15.458,14.4809,6.5038,0,0,0
0.0242,0.144,1.0435,-18.9389,21.4046,11.8321,0,0,0
-0.0977,0.1626,1.0044,-20.2748,25.3969,18.9084,0,0,0
-0.1328,0.1921,0.9802,-22.7863,23.8244,22.3664,0,0,0
-0.0493,0.1494,1.0586,-24.1298,25.626,33.0076,0,0,0
-0.0278,0.1509,1.0757,-26.9389,34.0763,39.1145,0,0,0
-0.1204,0.1521,0.9736,-27.1221,35.0763,42.4198,0,0,0
-0.2229,0.1921,0.9072,-19.4198,28.5267,42.0687,0,0,0
-0.2402,0.1816,0.9238,-12.4275,24.9237,32.084,0,0,0
-0.2344,0.1865,0.9495,-7.4733,22.855,21.4656,0,0,0
-0.1855,0.1775,0.9827,-5.4885,25.1527,17.5573,0,0,0
-0.1958,0.1675,0.9353,-5.0534,27.1985,14.9771,0,0,0
-0.1638,0.1709,0.9163,-1.4885,31.3511,14.2824,0,0,0
-0.1223,0.1533,1.0166,1.855,36.5573,12.8855,0,0,0
-0.2566,0.2263,0.9409,3.1298,26.687,11.8702,0,0,0
-0.2593,0.1951,0.9985,-0.3435,13.7786,11.855,0,0,0
-0.2275,0.209,1.0339,-4.4275,5.2748,12.8855,0,0,0
-0.2563,0.2046,1.0017,-7.7481,3.3206,10.6565,0,0,0
-0.2498,0.2068,0.9946,-7.626,1.0,7.0382,0,0,0
-0.207,0.1912,0.9897,-7.916,1.8397,5.5649,0,0,0
-0.1877,0.1755,0.9846,-7.3893,3.0076,6.313,0,0,0
-0.2217,0.1899,0.9702,-6.9084,3.084,6.6107,0,0,0
-0.2156,0.1736,0.9666,-7.5573,-0.7786,7.5802,0,0,0
-0.2024,0.1792,0.9644,-8.9313,-4.8092,13.687,0,0,0
-0.1826,0.168,0.9653,-10.8015,-8.0076,20.7863,0,0,0
-0.2053,0.1614,0.9424,-9.0916,-10.084,24.0763,0,0,0
-0.2463,0.1785,0.9563,-5.9695,-12.2824,23.7481,0,0,0
-0.2656,0.2112,0.9749,-12.7328,-21.855,28.542,0,0,0
-0.2046,0.1777,1.0403,-18.1221,-28.8855,34.7099,0,0,0
-0.1582,0.1768,1.0662,-18.7328,-27.0076,33.4962,0,0,0
-0.157,0.1711,1.0444,-18.7786,-22.229,29.5344,0,0,0
-0.145,0.1609,1.0056,-18.5573,-18.9542,27.2137,0,0,0
-0.1436,0.1548,0.9807,-15.3511,-16.0305,23.0992,0,0,0
-0.1418,0.1335,0.9712,-8.4962,-10.4733,18.0305,0,0,0
-0.178,0.1509,0.9788,-2.5573,-7.3053,13.1985,0,0,0
-0.1973,0.1575,1.0144,-0.771,-7.3969,7.1603,0,0,0
-0.1724,0.1958,1.0237,-1.6718,-7.1221,2.2519,0,0,0
-0.1819,0.1841,1.0229,-3.4504,-7.3206,0.7557,0,0,0
-0.1519,0.1765,1.0339,-5.3206,-6.5878,-1.1679,0,0,0
-0.1223,0.1548,1.009,-5.5496,-5.0534,-1.1756,0,0,0
-0.0911,0.1611,0.9988,-4.2137,-5.2137,-0.1908,0,0,0
0.0779,0.1526,1.1497,-3.2824,-12.626,3.145,0,0,0
-0.1416,0.0991,1.0046,-4.0305,-2.5115,-0.6565,0,0,0
-0.1101,0.1245,0.9553,2.2824,-0.1298,2.6641,0,0,0
-0.1572,0.1675,0.9961,3.6947,0.9542,2.9695,0,0,0
-0.1753,0.1824,1.0339,2.5191,2.3282,-2.5802,0,0,0
-0.167,0.1855,1.0232,1.0153,3.6031,-7.2366,0,0,0
-0.1626,0.1829,1.0085,-0.0458,4.2824,-8.4275,0,0,0
-0.1528,0.165,1.0171,0.4198,4.8092,-11.1603,0,0,0
-0.1362,0.1533,1.0061,1.6107,5.6412,-12.8779,0,0,0
-0.1331,0.1541,1.0029,2.4809,5.8702,-11.0382,0,0,0
-0.1382,0.1599,1.0164,2.0534,5.7786,-8.1679,0,0,0
-0.1597,0.1714,1.0027,0.5496,5.8244,-5.8779,0,0,0
-0.1638,0.1616,0.9988,-0.1527,5.771,-6.0229,0,0,0
-0.1721,0.1699,0.9949,-0.0687,6.0382,-6.5115,0,0,0
-0.1738,0.175,0.9827,0.5573,5.0153,-6.1679,0,0,0
-0.1768,0.1609,0.9817,0.8397,3.2214,-5.7328,0,0,0
-0.1641,0.1609,0.9915,1.7328,1.5954,-4.5573,0,0,0
-0.155,0.1621,1.0044,2.0763,1.7023,-3.7023,0,0,0
-0.1731,0.1799,1.0146,0.3511,0.9924,-2.0611,0,0,0
-0.1621,0.1685,1.022,-1.4351,1.0229,-2.1832,0,0,0
-0.1602,0.1672,1.0002,-2.229,0.1298,-1.5191,0,0,0
-0.1462,0.1516,1.0022,-1.0992,1.0076,-0.8779,0,0,0
-0.1487,0.1514,0.9836,0.9542,2.8092,0.0992,0,0,0
-0.2068,0.1912,0.9827,1.1145,0.2214,0.6412,0,0,0
-0.1748,0.1733,1.0237,-0.5725,-1.626,-1.9542,0,0,0
-0.1545,0.1721,1.0166,-2.7099,-1.8092,-1.0,0,0,0
-0.1318,0.1467,1.0203,-2.7176,0.0458,0.7939,0,0,0
-0.1516,0.1592,1.0105,-2.0534,1.7328,1.3206,0,0,0
-0.1719,0.1741,1.0071,-1.9771,2.1832,0.3893,0,0,0
-0.1799,0.1785,0.9866,-2.7328,1.3893,-0.0992,0,0,0
-0.1724,0.1665,0.9873,-2.6794,-0.2214,0.0458,0,0,0
-0.1606,0.1548,0.9724,-0.5038,1.3511,-1.0687,0,0,0
-0.1526,0.1531,0.979,2.4504,2.7939,-1.0916,0,0,0
-0.188,0.1794,0.9805,3.7023,3.2137,-1.9389,0,0,0
-0.1921,0.1843,1.0061,1.4198,1.2366,-2.0382,0,0,0
-0.1765,0.1833,1.0273,-2.0382,-0.5496,-1.5649,0,0,0
-0.1729,0.1724,1.0134,-3.4809,-1.7405,-1.2137,0,0,0
-0.1621,0.1646,0.9958,-3.1756,-1.542,-0.7786,0,0,0
-0.1807,0.1689,0.9949,-2.1603,-0.7481,-1.8855,0,0,0
-0.1807,0.1794,0.9963,-2.0458,-1.7252,-3.1145,0,0,0
-0.1511,0.1514,1.0066,-1.6489,-1.3511,-2.6947,0,0,0
-0.147,0.1553,1.011,-0.9695,0.458,-0.9695,0,0,0
-0.1555,0.1565,1.012,-0.5344,0.8702,0.542,0,0,0
-0.1699,0.1729,1.0066,-1.4962,1.1832,0.3588,0,0,0
-0.165,0.1675,1.0068,-1.7863,0.5573,0.2824,0,0,0
-0.1499,0.1575,1.0049,-1.1985,1.3511,0.6107,0,0,0
-0.1548,0.1621,0.9922,-0.1374,2.6412,1.4504,0,0,0
-0.1721,0.167,0.989,0.9771,2.7023,0.9084,0,0,0
-0.1694,0.1663,1.0061,1.8397,3.0153,0.4504,0,0,0
-0.1653,0.1814,1.009,1.7557,3.8626,-0.3969,0,0,0
-0.197,0.2031,0.9937,0.1985,2.9618,0.1756,0,0,0
-0.1926,0.1873,1.0049,-2.3588,-0.0687,1.1985,0,0,0
-0.1729,0.1765,1.0049,-3.7939,-0.7328,0.4504,0,0,0
-0.1792,0.1758,0.9866,-3.1832,-0.8168,1.2443,0,0,0
-0.1877,0.1843,0.9871,-1.9847,-1.1069,-0.6107,0,0,0
-0.1924,0.1887,0.9653,-2.084,-1.771,-2.0611,0,0,0
-0.1826,0.1763,0.9763,-1.5954,-2.5267,-2.0992,0,0,0
-0.1653,0.1646,0.9939,-1.3053,-2.6794,-3.1985,0,0,0
-0.168,0.1726,0.9939,-0.9847,-2.0305,-2.9618,0,0,0
-0.1721,0.1799,1.0132,-2.687,-3.3664,-1.855,0,0,0
-0.1726,0.1731,1.0176,-4.4809,-4.0153,-2.6947,0,0,0
-0.1584,0.1697,0.9966,-5.0382,-3.6947,-2.5115,0,0,0
-0.1523,0.1558,0.9937,-3.4962,-2.4809,-2.1298,0,0,0
-0.156,0.1641,0.9834,-1.1527,-0.6794,-3.1756,0,0,0
-0.165,0.1619,0.9917,0.3359,-0.2672,-3.2824,0,0,0
-0.1572,0.1582,1.0225,0.7405,0.3893,-3.0611,0,0,0
-0.179,0.1821,1.011,-0.9924,0.3664,-1.3359,0,0,0
-0.1853,0.1772,1.0093,-2.7328,-0.8855,-1.3206,0,0,0
-0.1855,0.1826,1.0044,-3.8779,-2.6336,-1.6565,0,0,0
-0.1675,0.1628,1.0022,-4.1679,-2.7786,-2.1832,0,0,0
-0.1658,0.1624,0.9858,-3.374,-2.2519,-2.1756,0,0,0
-0.1543,0.1511,0.9919,-2.0611,-1.3817,-1.7252,0,0,0
-0.1597,0.1646,1.0007,-1.374,0.0,-0.626,0,0,0
-0.1812,0.1672,1.009,-0.6031,0.1603,-0.5725,0,0,0
-0.1897,0.1809,1.0171,-0.7405,0.1298,-2.5802,0,0,0
-0.1743,0.1699,1.0103,-2.3282,-0.0534,-3.1145,0,0,0
-0.1711,0.1755,1.0076,-4.3053,-1.8015,-0.3511,0,0,0
-0.1633,0.1616,1.0012,-4.8779,-2.1985,-0.6107,0,0,0
-0.1672,0.1799,0.9736,-3.9237,-1.8321,-1.1756,0,0,0
-0.1611,0.1599,0.9934,-1.9847,-1.2748,-2.0153,0,0,0
-0.1531,0.1599,0.9946,-0.8779,-0.2519,-2.2672,0,0,0
-0.1516,0.1572,1.0203,0.0687,0.8779,-2.5649,0,0,0
-0.1604,0.1689,1.0259,-1.229,1.7176,-2.5496,0,0,0
-0.1555,0.1763,1.0308,-3.0458,2.7481,-2.2595,0,0,0
-0.1653,0.1848,1.0032,-4.3053,3.9237,-4.4733,0,0,0
-0.1707,0.1819,0.9783,-4.5191,5.5496,-8.0229,0,0,0
-0.1282,0.2517,1.0054,-5.5038,8.6565,-11.0763,0,0,0
-0.1187,0.1475,1.0625,-5.4733,12.7557,-8.1908,0,0,0
-0.1721,0.1372,1.0298,-2.3588,13.8473,-11.0153,0,0,0
-0.1443,0.1675,1.0237,-0.8321,16.9618,-12.0076,0,0,0
-0.1736,0.1494,1.0251,1.8626,19.0229,-12.8855,0,0,0
-0.2065,0.1875,1.0107,0.5191,18.2977,-14.771,0,0,0
-0.2344,0.1985,0.9758,-2.5878,16.4198,-14.2748,0,0,0
-0.2395,0.1772,0.9651,-4.1069,12.2977,-12.5878,0,0,0
-0.228,0.1704,0.9827,-5.4275,7.7863,-10.6412,0,0,0
-0.1958,0.1433,0.9854,-5.542,6.6107,-10.0611,0,0,0
-0.2036,0.1223,0.9868,-4.2672,6.1908,-8.0687,0,0,0
-0.1694,0.1243,0.9988,-3.2595,6.4504,-4.4351,0,0,0
-0.1592,0.1343,0.9946,-2.4046,7.7099,-1.8702,0,0,0
-0.1794,0.1558,1.0085,-2.5191,9.626,-0.5191,0,0,0
-0.2344,0.1655,0.9912,-4.1832,8.6031,-0.0305,0,0,0
-0.2478,0.1765,0.9841,-6.1908,5.2595,-0.2595,0,0,0
-0.2485,0.156,0.9631,-5.8321,2.0534,-1.9771,0,0,0
-0.2214,0.1406,0.9712,-3.687,0.9695,-3.4275,0,0,0
-0.2078,0.1418,0.9976,-0.9924,1.4427,-3.8397,0,0,0
-0.2031,0.1624,1.0063,-1.2519,1.8779,-3.0534,0,0,0
-0.1953,0.1633,1.0173,-3.458,2.7099,-2.7557,0,0,0
-0.1995,0.1548,1.0034,-4.2519,2.8855,-1.4351,0,0,0
-0.2014,0.1521,1.0022,-4.0076,4.374,-1.1679,0,0,0
-0.2217,0.1628,1.0017,-4.313,3.8092,-1.0305,0,0,0
-0.219,0.1521,0.9971,-5.5496,2.7939,-0.9618,0,0,0
-0.2124,0.1401,0.9897,-4.7863,2.7557,-0.0992,0,0,0
-0.207,0.1406,0.9817,-4.0076,3.2137,0.8397,0,0,0
-0.2043,0.137,0.9839,-2.2977,4.8321,1.1069,0,0,0
-0.2234,0.1501,0.9832,-1.4885,5.0153,0.9847,0,0,0
-0.2285,0.1528,0.9971,-1.2672,5.0305,-0.0458,0,0,0
-0.239,0.1616,1.002,-2.3359,4.4733,-0.1756,0,0,0
-0.229,0.1575,0.9873,-4.1832,2.8015,0.2748,0,0,0
-0.2046,0.1323,0.9802,-3.8244,2.3588,0.687,0,0,0
-0.2104,0.136,0.9775,-2.084,3.084,0.6641,0,0,0
-0.2168,0.1433,0.9788,-0.9924,3.0763,0.3969,0,0,0
-0.1987,0.1379,1.0054,-1.0,4.1374,1.4198,0,0,0
-0.207,0.1511,1.0066,-2.0611,7.8397,1.1145,0,0,0
-0.2437,0.1594,0.9822,-1.3206,6.8779,-0.6412,0,0,0
-0.2246,0.1538,0.9905,-1.2824,7.1832,-1.2519,0,0,0
-0.2415,0.137,0.9783,0.7176,5.7328,0.229,0,0,0
-0.21,0.1628,0.989,0.3969,3.8092,3.2824,0,0,0
-0.2527,0.1721,0.9929,-0.5573,5.4504,0.8779,0,0,0
-0.2717,0.176,0.9807,-0.6947,2.9924,-2.3588,0,0,0
-0.2312,0.1589,0.9937,-1.4427,1.0382,-3.2061,0,0,0
-0.2227,0.1531,0.9973,-1.5038,0.9008,-1.4427,0,0,0
-0.2261,0.1519,0.9851,-1.2214,0.6107,0.4122,0,0,0
-0.2395,0.158,1.0007,-0.1908,0.9771,-0.5954,0,0,0
-0.2537,0.1689,1.0264,-1.3817,2.3511,-2.916,0,0,0
-0.2214,0.1729,1.0149,-5.1908,5.4198,-4.5725,0,0,0
-0.2419,0.1423,0.9436,-4.8321,1.6336,-2.0611,0,0,0
-0.2234,0.136,0.981,-2.8092,-0.5191,0.4962,0,0,0
-0.1914,0.1353,1.0015,-3.2901,4.4046,-0.0992,0,0,0
-0.197,0.1333,0.9741,-1.2214,9.0153,0.8244,0,0,0
-0.238,0.1301,0.9707,2.687,10.374,1.3664,0,0,0
-0.2146,0.157,0.9854,2.229,14.9389,1.229,0,0,0
-0.2173,0.1536,0.9763,3.0611,14.9237,2.2061,0,0,0
-0.2317,0.1445,0.968,3.4733,14.7405,3.2366,0,0,0
-0.2349,0.1631,1.0005,3.1221,20.8397,3.5878,0,0,0
-0.2703,0.168,1.0044,2.6718,25.9466,1.6489,0,0,0
-0.2927,0.1802,0.9812,2.2901,27.4809,-0.9237,0,0,0
-0.28,0.1956,0.9641,1.3969,24.3359,-2.9084,0,0,0
-0.2813,0.1409,0.9856,-0.458,20.6489,-2.1985,0,0,0
-0.2583,0.1501,0.9895,-0.8473,17.3053,-0.9771,0,0,0
-0.248,0.1467,0.9878,-0.8092,16.5725,-0.6107,0,0,0
-0.2598,0.1541,0.9866,-1.8168,15.4733,-0.2595,0,0,0
-0.2839,0.1489,0.9756,-2.3817,13.0305,3.084,0,0,0
-0.2852,0.155,0.9934,-4.1832,11.9924,3.374,0,0,0
-0.3093,0.1641,0.9844,-5.145,10.9618,1.8092,0,0,0
-0.3181,0.1697,0.9756,-7.1145,7.6107,0.6031,0,0,0
-0.2822,0.1453,0.9883,-7.4427,6.4962,-1.3664,0,0,0
-0.2896,0.1592,0.958,-7.1298,4.4275,-1.8244,0,0,0
-0.2554,0.147,0.9653,-6.2137,4.313,-0.7328,0,0,0
-0.2551,0.1426,0.967,-4.229,7.6412,-0.6718,0,0,0
-0.269,0.1348,0.9783,-3.0305,10.3893,0.5267,0,0,0
-0.2854,0.1458,0.9788,-2.9466,11.0076,1.7328,0,0,0
-0.29,0.1538,0.9778,-2.7405,11.4809,2.9695,0,0,0
-0.2986,0.1533,0.9771,-3.1145,11.0229,3.2748,0,0,0
-0.3044,0.1665,0.9707,-3.7481,10.0382,3.0382,0,0,0
-0.3049,0.1509,0.9792,-4.3206,9.5496,3.7252,0,0,0
-0.3098,0.1543,0.979,-4.2443,8.5496,3.3053,0,0,0
-0.3052,0.1628,0.98,-5.4504,9.1221,3.3588,0,0,0
-0.3237,0.1631,0.9661,-6.0229,7.7099,2.5954,0,0,0
-0.3235,0.1638,0.9597,-6.6489,5.1527,4.1145,0,0,0
-0.3235,0.1572,0.9758,-8.1374,4.9084,2.5802,0,0,0
-0.3123,0.1562,0.957,-8.2977,4.4656,2.1832,0,0,0
-0.2988,0.1384,0.9636,-7.0382,4.2214,2.7863,0,0,0
-0.2935,0.1509,0.95,-6.0611,4.3588,3.229,0,0,0
-0.292,0.1411,0.9465,-4.8015,5.6489,4.3511,0,0,0
-0.3125,0.1494,0.9526,-3.7939,5.5344,4.8321,0,0,0
-0.3142,0.1514,0.9661,-3.626,6.1069,4.7863,0,0,0
-0.3108,0.1462,0.968,-3.6183,6.5191,4.5496,0,0,0
-0.3245,0.1584,0.9595,-4.1298,5.6336,5.1908,0,0,0
-0.3167,0.1465,0.9812,-4.7328,3.9618,5.4809,0,0,0
-0.3362,0.1638,0.9543,-6.1603,1.771,5.5344,0,0,0
-0.3154,0.1489,0.9805,-7.7405,0.2061,6.7176,0,0,0
-0.302,0.155,0.9722,-9.1527,1.5496,7.0,0,0,0
-0.3123,0.1423,0.9634,-9.9237,1.5802,7.7252,0,0,0
-0.2898,0.1257,0.9531,-8.0992,2.3435,7.4733,0,0,0
-0.2896,0.1287,0.9512,-5.3893,4.2901,6.3359,0,0,0
-0.3125,0.1475,0.9521,-4.2672,4.7557,7.2595,0,0,0
-0.3293,0.1387,0.9783,-4.8321,2.7023,9.771,0,0,0
-0.2939,0.1421,0.9949,-6.2748,4.7099,11.0992,0,0,0
-0.3271,0.1433,0.9785,-7.1603,6.855,11.2595,0,0,0
-0.3394,0.1626,0.967,-8.3817,4.9466,10.229,0,0,0
-0.3193,0.1309,0.9778,-8.855,4.2977,7.1527,0,0,0
-0.3154,0.1365,0.9714,-8.5878,4.1298,6.4427,0,0,0
-0.3276,0.1223,0.9653,-8.8168,3.7481,7.3206,0,0,0
-0.322,0.1506,0.9768,-9.9695,3.8702,11.2366,0,0,0
-0.3083,0.1309,0.99,-12.5649,5.0458,12.8168,0,0,0
-0.3101,0.1343,0.9753,-12.7557,6.4962,11.3511,0,0,0
-0.3025,0.1169,0.9702,-10.5573,8.0229,11.4427,0,0,0
-0.2927,0.1187,0.968,-9.4809,9.9695,11.6641,0,0,0
-0.3228,0.1304,0.9431,-9.4351,10.5038,12.8702,0,0,0
-0.3345,0.127,0.937,-8.1679,10.7099,13.7863,0,0,0
-0.3503,0.1367,0.9497,-7.0153,10.4046,13.229,0,0,0
-0.3333,0.1365,0.9785,-7.5954,11.8931,11.5267,0,0,0
-0.3442,0.1404,0.9673,-8.2901,11.2137,11.0687,0,0,0
-0.3525,0.1582,0.9614,-8.8168,10.3206,10.5878,0,0,0
-0.3401,0.144,0.9592,-9.1221,8.9237,8.8931,0,0,0
-0.3301,0.1313,0.9651,-8.2977,9.9313,8.3969,0,0,0
-0.3438,0.1438,0.9543,-7.6947,9.5267,7.7099,0,0,0
-0.3572,0.1477,0.9551,-8.9313,7.9466,7.3817,0,0,0
-0.3293,0.1287,0.9648,-8.7099,7.458,8.2672,0,0,0
-0.311,0.1282,0.9658,-8.458,10.9847,9.5038,0,0,0
-0.335,0.1348,0.9604,-8.4733,11.8702,10.4427,0,0,0
-0.3499,0.1404,0.9612,-9.0153,10.9618,10.4198,0,0,0
-0.3491,0.1243,0.9438,-8.7939,10.0611,9.1832,0,0,0
-0.3567,0.1274,0.9299,-7.542,9.0153,8.6718,0,0,0
-0.3564,0.1226,0.9448,-5.542,7.8473,7.5038,0,0,0
-0.3572,0.1428,0.9517,-5.6718,8.8779,7.313,0,0,0
-0.3423,0.1287,0.9768,-6.5649,8.9924,6.7405,0,0,0
-0.343,0.1284,0.9648,-7.229,9.916,6.1374,0,0,0
-0.3447,0.1213,0.9629,-7.229,9.9847,5.8015,0,0,0
-0.3774,0.1348,0.9619,-7.4046,7.9924,5.9847,0,0,0
-0.3828,0.1409,0.9617,-8.916,6.3435,5.5954,0,0,0
-0.3918,0.1499,0.9573,-10.6183,5.3664,4.6641,0,0,0
-0.3755,0.1248,0.9404,-10.3969,5.3206,2.5344,0,0,0
-0.3403,0.1079,0.937,-7.5191,7.7176,1.4504,0,0,0
-0.3308,0.1008,0.9517,-5.4198,10.9618,3.3817,0,0,0
-0.3145,0.1082,0.9524,-4.9847,15.0534,4.9237,0,0,0
-0.3394,0.1116,0.9468,-4.1679,16.9924,7.0992,0,0,0
-0.3652,0.1201,0.9497,-3.5878,15.7023,7.8321,0,0,0
-0.4089,0.1504,0.9482,-5.6565,14.2366,6.4122,0,0,0
-0.415,0.1384,0.9341,-7.1069,10.1298,4.0534,0,0,0
-0.4272,0.1392,0.9224,-7.7557,4.3969,3.4733,0,0,0
-0.3958,0.1238,0.9185,-7.7405,2.3435,2.1679,0,0,0
-0.3875,0.1223,0.9001,-5.626,3.2366,1.313,0,0,0
-0.3845,0.1194,0.9124,-2.9237,3.7099,0.2366,0,0,0
-0.3718,0.1091,0.9419,-0.9847,5.2977,-0.7099,0,0,0
-0.3669,0.125,0.9446,-0.6718,6.2443,-0.1069,0,0,0
-0.3694,0.1194,0.9612,-1.1908,6.626,0.7939,0,0,0
-0.3879,0.1311,0.9468,-2.7099,5.4656,1.5802,0,0,0
-0.3992,0.1187,0.9509,-2.9466,5.1985,1.5496,0,0,0
-0.3967,0.1248,0.9548,-3.2519,5.5496,0.4198,0,0,0
-0.408,0.1479,0.9553,-5.3206,4.8702,1.229,0,0,0
-0.4221,0.0364,0.9612,-11.0763,4.4198,1.1603,0,0,0
-0.3704,0.1335,0.9399,-8.7176,2.3282,1.4809,0,0,0
-0.3748,0.1108,0.9431,-7.6947,5.5802,1.1221,0,0,0
-0.3452,0.0962,0.9624,-6.916,8.5496,2.3893,0,0,0
-0.3767,0.1326,0.9622,-8.3817,10.8397,4.084,0,0,0
-0.3992,0.1091,0.9534,-9.2443,9.229,4.687,0,0,0
-0.4194,0.1272,0.9207,-9.3893,7.5038,3.7939,0,0,0
-0.4163,0.1174,0.8999,-9.0458,5.4656,3.2595,0,0,0
-0.3997,0.104,0.9075,-6.5191,4.9924,2.6641,0,0,0
-0.3875,0.0833,0.9138,-5.1603,6.8473,3.1832,0,0,0
-0.3894,0.1099,0.9233,-2.5191,7.4427,3.8473,0,0,0
-0.3936,0.1055,0.9385,-1.4504,9.0382,2.8168,0,0,0
-0.4009,0.1143,0.9426,-0.9771,9.3206,3.1221,0,0,0
-0.4163,0.1282,0.9497,-3.0229,7.7176,3.0076,0,0,0
-0.4485,0.1299,0.9463,-4.8855,5.4733,2.0458,0,0,0
-0.4194,0.1348,0.958,-7.626,3.4656,0.4656,0,0,0
-0.3733,0.1074,0.9658,-9.2214,7.1069,1.0611,0,0,0
-0.3562,0.0642,0.9731,-12.6412,12.9237,4.9313,0,0,0
-0.3589,0.0857,0.9519,-11.4351,16.9466,7.2595,0,0,0
-0.4009,0.0879,0.9109,-8.3893,17.8321,7.8168,0,0,0
-0.3975,0.1023,0.8938,-5.5954,17.8168,6.0305,0,0,0
-0.3975,0.1353,0.8936,-5.2366,18.2366,6.5115,0,0,0
-0.3953,0.0676,0.9148,-5.0458,19.1374,7.8321,0,0,0
-0.4126,0.0784,0.906,-3.4504,19.6718,9.6565,0,0,0
-0.4561,0.1252,0.9026,-3.0763,16.5267,10.5649,0,0,0
-0.4768,0.1196,0.915,-4.2214,14.1298,9.2061,0,0,0
-0.5039,0.1357,0.9058,-5.4733,10.1679,6.5115,0,0,0
-0.5098,0.1311,0.9087,-6.771,5.0305,2.3435,0,0,0
-0.4609,0.1086,0.916,-6.1679,1.6794,-0.0382,0,0,0
-0.4302,0.1062,0.9119,-4.7023,1.855,0.0,0,0,0
-0.4172,0.0884,0.9167,-3.1527,3.7328,0.2137,0,0,0
-0.4302,0.1201,0.9209,-2.0992,5.9695,0.5496,0,0,0
-0.4175,0.0957,0.9456,-3.8397,5.4962,1.1603,0,0,0
-0.3989,0.0986,0.9417,-4.626,6.1908,3.0763,0,0,0
-0.4192,0.1001,0.9316,-5.6031,5.5725,5.8168,0,0,0
-0.4463,0.1018,0.9263,-5.374,5.4351,5.1603,0,0,0
-0.4421,0.1096,0.9136,-4.9771,5.626,3.9008,0,0,0
-0.47,0.1199,0.896,-4.6489,3.3435,3.8092,0,0,0
-0.4768,0.1184,0.8955,-4.2214,0.8168,1.6183,0,0,0
-0.4619,0.1218,0.8799,-2.8779,-0.8244,-0.4122,0,0,0
-0.4558,0.1182,0.8777,-1.1374,-2.2748,-1.313,0,0,0
-0.4546,0.1152,0.8845,0.6641,-3.4885,-2.7328,0,0,0
-0.4546,0.1245,0.8931,2.0076,-4.9466,-3.4046,0,0,0
-0.4502,0.1182,0.8899,2.3053,-7.1298,-3.6183,0,0,0
-0.4514,0.1143,0.8921,3.229,-9.6336,-4.3969,0,0,0
-0.4417,0.114,0.8921,4.2519,-13.4122,-2.5496,0,0,0
-0.4407,0.1379,0.9043,2.0992,-10.7557,-2.5725,0,0,0
-0.4612,0.126,0.9048,2.0992,-13.2137,-3.8779,0,0,0
-0.4565,0.1167,0.8887,2.687,-16.2519,-5.0305,0,0,0
-0.4402,0.1086,0.8921,5.3664,-21.3435,-6.0992,0,0,0
-0.4211,0.1096,0.8828,7.9313,-22.8015,-7.2443,0,0,0
-0.4214,0.1206,0.884,10.3969,-23.229,-8.0,0,0,0
-0.4304,0.1143,0.9148,11.1832,-25.1145,-9.1756,0,0,0
-0.4329,0.1113,0.9185,10.7481,-30.8931,-10.1832,0,0,0
-0.3994,0.1008,0.9221,12.1756,-33.6031,-9.9237,0,0,0
-0.4055,0.1282,0.9214,11.855,-35.0992,-10.0687,0,0,0
-0.3748,0.1086,0.9368,12.6565,-32.4046,-9.3359,0,0,0
-0.3757,0.1199,0.9514,12.4198,-26.0153,-8.3664,0,0,0
-0.4063,0.1458,0.9417,13.0305,-21.4656,-10.5267,0,0,0
-0.4094,0.1304,0.958,12.1756,-21.3969,-11.4427,0,0,0
-0.4041,0.1348,0.9641,9.8397,-23.0305,-13.2519,0,0,0
-0.3608,0.1418,0.9714,7.0687,-22.8855,-11.5115,0,0,0
-0.3477,0.1282,0.98,4.7634,-20.3817,-9.916,0,0,0
-0.3606,0.1272,0.9595,4.8702,-16.8931,-9.5725,0,0,0
-0.3562,0.1245,0.9485,4.9847,-15.7557,-10.0763,0,0,0
-0.3643,0.1274,0.9387,5.771,-16.7786,-10.2214,0,0,0
-0.3716,0.136,0.9448,5.3282,-18.3206,-10.0611,0,0,0
-0.3726,0.1399,0.9365,3.4198,-18.1221,-10.1221,0,0,0
-0.3364,0.1213,0.9619,3.0763,-15.0305,-9.2672,0,0,0
-0.3315,0.1099,0.9607,4.8092,-9.4733,-8.9389,0,0,0
-0.3325,0.1128,0.9612,7.5878,-6.1221,-7.9771,0,0,0
-0.3364,0.1235,0.9612,8.4046,-3.3435,-9.0,0,0,0
-0.3435,0.1245,0.9553,8.1908,-4.1221,-7.4809,0,0,0
-0.3364,0.1255,0.9802,7.4122,-4.145,-5.8855,0,0,0
-0.3501,0.1404,0.9866,5.313,-3.2366,-4.7405,0,0,0
-0.3743,0.1394,0.9832,3.1145,-3.1221,-5.3969,0,0,0
-0.3655,0.1455,0.9934,1.7481,-3.0763,-6.3206,0,0,0
-0.3579,0.146,0.9846,0.0382,-2.0992,-7.4504,0,0,0
-0.3586,0.1396,0.9741,-0.229,-2.0458,-8.1527,0,0,0
-0.3452,0.1333,0.959,0.4962,-1.3435,-8.6412,0,0,0
-0.3335,0.124,0.9453,1.8626,-0.5725,-8.7176,0,0,0
-0.325,0.1194,0.9316,3.9389,1.7405,-7.8931,0,0,0
-0.3354,0.1274,0.9277,6.6718,3.0305,-6.6412,0,0,0
-0.3459,0.1292,0.947,8.1832,4.687,-6.3435,0,0,0
-0.3672,0.144,0.9612,8.5954,4.6718,-7.0534,0,0,0
-0.3694,0.1558,0.9629,7.1069,4.0687,-8.0153,0,0,0
-0.375,0.1592,0.9624,5.6489,2.7557,-8.2672,0,0,0
-0.3691,0.1614,0.9673,4.084,2.6412,-9.5954,0,0,0
-0.3787,0.1541,0.9507,2.8779,0.771,-11.6412,0,0,0
-0.3655,0.147,0.9343,4.6336,0.1603,-12.5649,0,0,0
-0.3601,0.1389,0.9158,7.2519,1.5191,-14.4351,0,0,0
-0.3562,0.1333,0.9084,11.7405,2.6489,-16.8168,0,0,0
-0.3474,0.1367,0.9192,15.084,4.5496,-18.0382,0,0,0
-0.3423,0.1399,0.9482,16.3053,6.7786,-19.0458,0,0,0
-0.3499,0.1448,0.9526,16.4275,5.9695,-18.0382,0,0,0
-0.353,0.1531,0.9641,15.7557,5.2443,-16.458,0,0,0
-0.3525,0.1648,0.979,14.7328,7.0611,-15.5267,0,0,0
-0.4067,0.1924,0.9587,10.6947,5.1374,-13.7023,0,0,0
-0.4226,0.1973,0.9397,6.6412,1.7939,-15.313,0,0,0
-0.4192,0.1565,0.9231,6.9695,-2.7634,-18.4122,0,0,0
-0.373,0.1499,0.9253,9.1679,-4.3588,-20.7481,0,0,0
-0.3567,0.155,0.9331,10.2519,-2.6336,-18.9618,0,0,0
-0.3423,0.1516,0.9458,9.1298,-0.3511,-17.5038,0,0,0
-0.3474,0.1345,0.9492,9.7557,2.6183,-16.2672,0,0,0
-0.3611,0.1355,0.9595,10.4198,4.8779,-16.4198,0,0,0
-0.3945,0.1702,0.9529,7.7939,3.1679,-15.2366,0,0,0
-0.3918,0.1611,0.9539,4.7939,-0.4962,-12.9695,0,0,0
-0.3748,0.155,0.9424,3.0916,-1.8092,-11.1679,0,0,0
-0.3604,0.1482,0.9353,2.9008,-1.7786,-10.313,0,0,0
-0.3481,0.1421,0.9417,3.0763,-0.6412,-8.5115,0,0,0
-0.3567,0.1562,0.9446,3.5496,2.6565,-6.8626,0,0,0
-0.3918,0.1521,0.9424,4.3511,2.5496,-8.0305,0,0,0
-0.3879,0.1611,0.948,4.771,2.1069,-8.4122,0,0,0
-0.3926,0.1755,0.9636,2.6412,1.9008,-8.1221,0,0,0
-0.4048,0.1858,0.9521,-0.8397,2.4733,-7.5038,0,0,0
-0.4136,0.1836,0.9468,-3.1603,2.7481,-7.5573,0,0,0
-0.4214,0.1799,0.9382,-4.3511,1.7252,-10.4122,0,0,0
-0.3896,0.1736,0.9429,-5.0458,1.0382,-12.6489,0,0,0
-0.353,0.1538,0.9453,-4.9084,0.2748,-10.7099,0,0,0
-0.3323,0.1467,0.9517,-5.4733,2.9389,-7.6107,0,0,0
-0.3276,0.1365,0.9626,-5.6718,6.0458,-4.771,0,0,0
-0.3362,0.1438,0.96,-6.3664,9.1374,-2.1527,0,0,0
-0.3721,0.1643,0.9568,-9.1069,12.5496,-0.6489,0,0,0
-0.4124,0.1619,0.9375,-10.7481,10.9695,-0.9466,0,0,0
-0.4153,0.1641,0.9253,-11.1527,7.9466,-1.7099,0,0,0
-0.4055,0.1494,0.9116,-10.1756,5.3969,-3.5573,0,0,0
-0.3994,0.1399,0.9187,-8.4275,4.5267,-3.4351,0,0,0
-0.3987,0.1631,0.9224,-8.3817,4.916,-4.8779,0,0,0
-0.4004,0.1387,0.9314,-8.9008,5.313,-4.9389,0,0,0
-0.4019,0.1514,0.9241,-8.0229,4.0305,-3.6031,0,0,0
-0.3967,0.1492,0.9314,-9.1221,4.229,-3.2061,0,0,0
-0.4016,0.1372,0.939,-8.9618,5.0229,-2.771,0,0,0
-0.4197,0.1394,0.9238,-9.0229,2.7786,-2.7939,0,0,0
-0.3835,0.1392,0.9265,-8.3282,3.5115,-3.229,0,0,0
-0.3953,0.1189,0.9321,-7.4656,4.9695,-3.1221,0,0,0
-0.4153,0.1394,0.9185,-6.3664,3.6794,-3.1832,0,0,0
-0.4058,0.1306,0.9182,-5.6489,1.4351,-4.0153,0,0,0
-0.3848,0.1245,0.9487,-4.6412,1.626,-4.2214,0,0,0
-0.3794,0.1345,0.9529,-5.2672,2.9695,-2.9924,0,0,0
-0.3777,0.1328,0.9387,-6.8244,2.6031,-0.6947,0,0,0
-0.3706,0.1191,0.9226,-6.5344,2.5725,2.1374,0,0,0
-0.3914,0.1187,0.9167,-5.7863,5.2061,3.313,0,0,0
-0.4182,0.1267,0.9121,-4.8015,5.2519,2.3511,0,0,0
-0.4297,0.1211,0.9089,-3.8626,4.5878,1.0076,0,0,0
-0.4199,0.1382,0.9302,-3.9618,4.0534,-0.3511,0,0,0
-0.4021,0.134,0.9348,-5.4198,6.458,-1.1298,0,0,0
-0.4167,0.1211,0.948,-5.626,5.2595,-0.7863,0,0,0
-0.4104,0.1248,0.946,-5.8015,4.2901,-0.9771,0,0,0
-0.3994,0.1155,0.946,-5.9695,4.0153,-0.5573,0,0,0
-0.3967,0.1265,0.937,-6.229,3.8168,0.6107,0,0,0
-0.3982,0.127,0.9248,-6.6947,4.7786,1.7557,0,0,0
-0.4031,0.1174,0.9292,-6.4656,6.313,2.771,0,0,0
-0.4177,0.126,0.9272,-6.4962,8.0534,3.1221,0,0,0
-0.4182,0.1423,0.9185,-6.8702,8.1756,2.4427,0,0,0
-0.4224,0.1199,0.9172,-7.0992,8.6031,1.9389,0,0,0
-0.428,0.1184,0.9175,-6.0229,7.1221,1.8397,0,0,0
-0.4253,0.1416,0.9329,-6.4275,8.5038,2.2824,0,0,0
-0.4551,0.1506,0.9355,-7.9847,9.8931,1.3206,0,0,0
-0.4392,0.1519,0.9155,-9.6947,12.7786,-0.9542,0,0,0
-0.4277,0.1157,0.915,-8.2672,11.8321,-1.8702,0,0,0
-0.4314,0.1072,0.9185,-6.6565,9.6489,-1.5344,0,0,0
-0.4285,0.1116,0.9146,-5.8168,7.1527,-0.458,0,0,0
-0.4319,0.116,0.8994,-5.6565,5.0153,-0.5115,0,0,0
-0.439,0.0959,0.9099,-3.6489,2.1756,0.1603,0,0,0
-0.4226,0.1001,0.9092,-2.1221,2.4962,-0.1374,0,0,0
-0.4119,0.1099,0.9214,-1.3588,2.8779,0.6947,0,0,0
-0.426,0.123,0.9277,-2.4733,4.0076,0.0992,0,0,0
-0.4448,0.1257,0.9272,-3.1374,2.8855,-0.3588,0,0,0
-0.4275,0.1243,0.9446,-5.0305,2.5344,0.0153,0,0,0
-0.4312,0.1182,0.9377,-6.4733,4.9542,0.4122,0,0,0
-0.4314,0.1245,0.9248,-7.084,3.6794,1.7786,0,0,0
-0.4287,0.1135,0.9133,-7.2061,4.4427,1.7176,0,0,0
-0.4292,0.0996,0.9187,-6.2061,6.0076,1.8626,0,0,0
-0.4373,0.0977,0.9082,-3.9237,5.4733,2.1756,0,0,0
-0.4346,0.1187,0.9126,-3.2901,5.9466,3.1374,0,0,0
-0.4529,0.1184,0.9055,-3.0916,4.6183,1.7557,0,0,0
-0.4443,0.1079,0.9177,-3.3893,3.626,2.374,0,0,0
-0.4299,0.1074,0.9312,-3.3282,4.2366,4.3664,0,0,0
-0.447,0.1245,0.9246,-4.3435,6.1298,4.8244,0,0,0
-0.4751,0.1274,0.9202,-5.3664,7.1603,2.2061,0,0,0
-0.4575,0.1267,0.9253,-6.2366,7.0763,0.4733,0,0,0
-0.4304,0.1094,0.946,-8.6489,7.2519,1.8092,0,0,0
-0.4373,0.1077,0.918,-9.6794,7.542,3.3588,0,0,0
-0.4351,0.0979,0.9082,-9.3206,7.7786,3.6718,0,0,0
-0.4453,0.0815,0.9001,-7.2137,7.6565,3.7863,0,0,0
-0.4297,0.0977,0.9041,-5.9313,7.8321,4.6107,0,0,0
-0.4431,0.0906,0.9065,-5.1908,8.1145,6.0382,0,0,0
-0.4675,0.094,0.9067,-4.313,7.0229,5.3206,0,0,0
-0.4587,0.1042,0.9082,-4.229,5.4962,5.0916,0,0,0
-0.4604,0.1128,0.9163,-4.8931,4.9924,4.4046,0,0,0
-0.4507,0.1121,0.9175,-5.8855,5.7099,4.5115,0,0,0
-0.4526,0.1101,0.9106,-6.6718,5.6489,4.6641,0,0,0
-0.4463,0.1094,0.917,-6.9695,6.3435,5.2901,0,0,0
-0.4524,0.126,0.9204,-7.7786,7.3893,5.2214,0,0,0
-0.4666,0.1104,0.9146,-8.8244,7.6565,6.1985,0,0,0
-0.4685,0.1033,0.9136,-9.8397,7.0611,5.8244,0,0,0
-0.4663,0.1025,0.9009,-9.0382,6.542,4.8473,0,0,0
-0.4607,0.0891,0.8997,-7.4656,6.0,4.5649,0,0,0
-0.439,0.0994,0.8931,-6.6031,6.7481,5.8702,0,0,0
-0.4558,0.104,0.8967,-6.855,8.626,7.8092,0,0,0
-0.4927,0.1135,0.8906,-6.3511,8.4885,7.8092,0,0,0
-0.5054,0.1191,0.8943,-6.1603,6.229,6.0229,0,0,0
-0.4917,0.1157,0.8987,-6.2672,4.229,4.2366,0,0,0
-0.478,0.113,0.896,-6.7634,2.8702,3.1374,0,0,0
-0.4622,0.0967,0.9001,-6.0534,2.2901,3.3206,0,0,0
-0.4583,0.1125,0.9084,-6.1527,5.0229,3.0229,0,0,0
-0.4761,0.1035,0.9062,-6.7786,4.3817,3.2977,0,0,0
-0.4778,0.1113,0.9121,-7.3893,3.458,4.1908,0,0,0
-0.4697,0.1052,0.9082,-7.6718,3.1069,2.8092,0,0,0
-0.4524,0.0933,0.9109,-7.313,2.9008,2.9237,0,0,0
-0.4526,0.1062,0.9158,-7.3893,4.0458,4.8702,0,0,0
-0.4619,0.1052,0.9238,-10.084,5.7786,5.8092,0,0,0
-0.4683,0.0989,0.9177,-11.4198,7.2366,6.7099,0,0,0
-0.4761,0.0923,0.925,-11.3206,8.5573,7.5038,0,0,0
-0.4841,0.1079,0.9189,-12.8244,7.542,6.6489,0,0,0
-0.498,0.1042,0.8982,-14.229,5.5038,5.4198,0,0,0
-0.4734,0.0996,0.907,-14.2595,6.7099,6.2137,0,0,0
-0.4937,0.0999,0.8958,-15.2214,7.7023,6.8855,0,0,0
-0.4812,0.1008,0.8591,-14.8779,7.2061,5.229,0,0,0
-0.4824,0.0688,0.8411,-11.1985,7.9313,4.4427,0,0,0
-0.4861,0.0852,0.8408,-8.3053,6.771,3.8702,0,0,0
-0.4861,0.0857,0.8599,-7.3206,7.3817,3.542,0,0,0
-0.5093,0.0864,0.8608,-6.0992,5.7634,3.9008,0,0,0
-0.4907,0.0947,0.885,-5.145,5.6336,1.6641,0,0,0
-0.4878,0.085,0.9075,-4.9237,5.9313,2.4427,0,0,0
-0.4761,0.0859,0.9231,-6.6641,5.916,3.458,0,0,0
-0.4817,0.0833,0.9265,-8.542,6.7099,4.0458,0,0,0
-0.5107,0.094,0.906,-9.4885,4.542,4.1603,0,0,0
-0.4946,0.0977,0.9197,-11.7023,4.1985,4.1221,0,0,0
-0.4895,0.0732,0.9116,-13.2061,4.9847,5.5267,0,0,0
-0.4873,0.0881,0.8953,-13.8244,6.0534,6.5802,0,0,0
-0.4927,0.071,0.8782,-12.6565,5.8244,6.3893,0,0,0
-0.4722,0.0615,0.8733,-10.855,6.6947,7.1832,0,0,0
-0.4468,0.0703,0.873,-9.1374,8.9924,10.4275,0,0,0
-0.46,0.0627,0.8704,-8.3664,13.5649,14.1145,0,0,0
-0.4692,0.0933,0.8882,-8.916,18.374,16.3511,0,0,0
-0.5056,0.0811,0.8965,-10.0916,19.3282,16.8473,0,0,0
-0.5518,0.0908,0.8772,-10.2366,17.4885,15.3588,0,0,0
-0.5876,0.0969,0.8711,-10.687,12.7252,11.1374,0,0,0
-0.5544,0.1038,0.8879,-11.1527,7.1908,7.1374,0,0,0
-0.5142,0.0979,0.8936,-13.5344,6.6107,7.1527,0,0,0
-0.4663,0.0591,0.9084,-14.771,9.0534,11.7099,0,0,0
-0.4751,0.0715,0.8806,-15.0992,12.8015,15.4656,0,0,0
-0.5254,0.0583,0.8423,-13.0687,12.8015,16.3588,0,0,0
-0.5391,0.0669,0.8425,-9.6947,9.5344,14.2366,0,0,0
-0.5283,0.0674,0.8481,-7.4198,8.4733,12.9847,0,0,0
-0.5159,0.1072,0.8735,-8.855,8.9237,13.0687,0,0,0
-0.491,0.0681,0.8804,-10.7023,10.6947,14.6794,0,0,0
-0.5161,0.0576,0.8804,-10.0076,13.7176,17.145,0,0,0
-0.5449,0.0898,0.8833,-9.1679,12.1908,15.6412,0,0,0
-0.5635,0.1018,0.8655,-9.3359,8.8702,11.1908,0,0,0
-0.5635,0.084,0.854,-8.5573,4.8779,8.4046,0,0,0
-0.5522,0.0745,0.8459,-6.916,1.4809,6.9618,0,0,0
-0.5422,0.0752,0.8474,-4.8397,1.3053,7.9466,0,0,0
-0.5784,0.0918,0.8467,-3.7786,1.6031,7.0229,0,0,0
-0.6047,0.1064,0.8462,-2.2977,-2.4656,2.2137,0,0,0
-0.5769,0.0974,0.8638,-2.8015,-6.7939,-3.4198,0,0,0
-0.5261,0.0776,0.8723,-2.7557,-8.7557,-4.4809,0,0,0
-0.5105,0.092,0.8616,-4.7176,-8.9847,-2.229,0,0,0
-0.4976,0.0725,0.8572,-5.3893,-11.0763,0.9466,0,0,0
-0.4863,0.0708,0.8516,-5.0458,-10.3511,3.3588,0,0,0
-0.4966,0.0557,0.8662,-3.0611,-9.7099,5.8779,0,0,0
-0.5,0.0706,0.8784,-2.5954,-11.4198,6.9466,0,0,0
-0.5171,0.0701,0.8948,-2.8626,-8.8626,7.2595,0,0,0
-0.5249,0.0769,0.8887,-1.8702,-9.6565,4.4733,0,0,0
-0.5281,0.082,0.8826,-1.9695,-8.8779,3.1527,0,0,0
-0.543,0.0796,0.8662,-1.7786,-13.0611,1.6641,0,0,0
-0.5166,0.0959,0.8562,-2.0382,-17.4809,1.7481,0,0,0
-0.48,0.0669,0.8662,-0.8779,-18.2443,2.374,0,0,0
-0.5054,0.0771,0.8677,1.8626,-18.9008,3.0687,0,0,0
-0.5061,0.1011,0.8896,2.1985,-15.7481,2.6412,0,0,0
-0.4998,0.0977,0.9182,0.229,-12.1908,1.5038,0,0,0
-0.4907,0.0903,0.9241,-1.2519,-9.5344,2.0763,0,0,0
-0.4939,0.0862,0.9089,-2.4351,-8.4351,2.7786,0,0,0
-0.5029,0.082,0.887,-2.4427,-9.458,2.7786,0,0,0
-0.5034,0.0808,0.8733,-1.5649,-13.1374,2.9389,0,0,0
-0.4653,0.0789,0.8794,-0.6947,-14.6336,4.2366,0,0,0
-0.4775,0.073,0.8638,0.4122,-15.7939,6.1221,0,0,0
-0.4866,0.0859,0.8704,1.8015,-17.4351,6.9695,0,0,0
-0.5027,0.0959,0.8972,2.4809,-17.0534,5.9618,0,0,0
-0.5139,0.0962,0.906,1.084,-17.3435,4.145,0,0,0
-0.4978,0.104,0.9153,1.0229,-17.2595,2.0992,0,0,0
-0.5044,0.1064,0.9041,1.0916,-19.3206,0.1298,0,0,0
-0.4673,0.0981,0.9016,0.8015,-21.9466,-0.4427,0,0,0
-0.4597,0.0959,0.8921,1.2214,-21.8473,0.6336,0,0,0
-0.4497,0.0786,0.8923,3.4351,-22.4427,2.3664,0,0,0
-0.4316,0.0864,0.8928,5.4504,-17.6718,3.6641,0,0,0
-0.4729,0.0791,0.8896,7.2061,-13.1527,3.4275,0,0,0
-0.5066,0.0994,0.8997,10.7786,-12.5344,-1.8855,0,0,0
-0.4924,0.1189,0.907,11.4504,-16.0305,-5.687,0,0,0
-0.4688,0.1196,0.9124,9.8931,-17.8626,-6.2672,0,0,0
-0.4558,0.1194,0.9084,9.6947,-18.3359,-7.6183,0,0,0
-0.4136,0.1013,0.9177,9.7023,-18.8168,-7.3511,0,0,0
-0.4016,0.1104,0.9028,9.2595,-15.5649,-6.3588,0,0,0
-0.4102,0.1082,0.8748,9.7328,-15.3817,-4.374,0,0,0
-0.4341,0.1094,0.8604,11.9695,-14.8092,-3.9542,0,0,0
-0.4426,0.0886,0.8706,16.229,-15.5649,-5.7939,0,0,0
-0.4099,0.0845,0.8933,20.7252,-15.4198,-6.6183,0,0,0
-0.4351,0.0845,0.8811,26.145,-18.6947,-9.6947,0,0,0
-0.4587,0.0767,0.9119,34.0229,-25.855,-14.1374,0,0,0
-0.4917,0.1562,0.9653,33.542,-33.1145,-17.6107,0,0,0
-0.4717,0.1624,0.9824,27.3588,-35.4046,-19.3359,0,0,0
-0.4548,0.1782,0.969,22.8931,-34.3282,-19.8321,0,0,0
-0.4182,0.1987,0.998,17.3511,-32.5802,-21.9771,0,0,0
-0.3882,0.179,0.9985,9.2977,-29.7328,-22.3893,0,0,0
-0.3462,0.147,0.9763,5.5954,-26.2901,-19.5802,0,0,0
-0.3508,0.1218,0.9531,6.0305,-19.0916,-17.1756,0,0,0
-0.3542,0.1299,0.9387,7.687,-14.9924,-15.7557,0,0,0
-0.3293,0.1069,0.9431,8.8473,-8.313,-14.3817,0,0,0
-0.3813,0.1367,0.9192,9.1374,-4.7099,-11.9084,0,0,0
-0.4131,0.1372,0.9185,9.3588,-5.855,-12.0076,0,0,0
-0.4087,0.1467,0.9351,9.1985,-4.229,-12.8015,0,0,0
-0.4072,0.1523,0.937,8.8779,-3.5954,-15.4427,0,0,0
-0.4263,0.1492,0.926,8.1603,-5.7099,-16.3893,0,0,0
-0.4041,0.1416,0.9307,7.4427,-8.6031,-16.5725,0,0,0
-0.3745,0.1223,0.9316,8.3511,-8.3664,-16.771,0,0,0
-0.3901,0.1345,0.9231,11.2977,-7.9618,-16.7557,0,0,0
-0.4282,0.1592,0.9182,12.0687,-11.9313,-19.0611,0,0,0
-0.3811,0.144,0.9482,12.7252,-14.2443,-21.771,0,0,0
-0.4028,0.1619,0.9451,12.1679,-14.6489,-20.3511,0,0,0
-0.4077,0.1663,0.9463,8.626,-12.458,-19.8168,0,0,0
-0.394,0.1499,0.9614,7.1069,-8.4198,-20.0305,0,0,0
-0.3616,0.1704,0.9629,6.5115,-4.4962,-18.2214,0,0,0
-0.3718,0.1599,0.9529,4.5344,-3.2595,-17.5878,0,0,0
-0.3635,0.1492,0.9397,4.6718,-4.9542,-17.8779,0,0,0
-0.3645,0.1511,0.9312,5.7634,-6.2824,-18.2595,0,0,0
-0.3215,0.114,0.9475,9.5496,-4.3664,-15.9618,0,0,0
-0.3464,0.1672,0.9758,5.3664,1.5954,-15.3893,0,0,0
-0.365,0.1465,0.9553,3.0229,5.7405,-14.4885,0,0,0
-0.3816,0.1494,0.9448,1.9695,6.9389,-13.145,0,0,0
-0.3201,0.0862,0.9604,3.7023,11.9313,-14.4504,0,0,0
-0.3269,0.1333,0.9409,6.0611,20.8321,-12.3817,0,0,0
-0.3784,0.1326,0.9314,6.9771,22.7481,-10.1145,0,0,0
-0.3833,0.1416,0.9248,7.4962,23.5267,-11.0534,0,0,0
-0.396,0.136,0.9373,8.3664,24.855,-13.5267,0,0,0
-0.4041,0.1458,0.9265,7.7176,24.1221,-14.2061,0,0,0
-0.3899,0.1396,0.9294,7.3969,21.8244,-11.1908,0,0,0
-0.3643,0.1201,0.9446,7.9008,24.0153,-8.9542,0,0,0
-0.3816,0.1345,0.927,7.9084,25.6183,-7.2977,0,0,0
-0.377,0.1077,0.9329,9.3588,29.4962,-6.3893,0,0,0
-0.4253,0.1489,0.9143,9.5496,30.3893,-5.6336,0,0,0
-0.4214,0.1511,0.9321,8.4198,31.3359,-6.8702,0,0,0
-0.4424,0.1677,0.9089,7.8168,31.4656,-7.1527,0,0,0
-0.4451,0.1658,0.9087,5.9466,30.4351,-6.1221,0,0,0
-0.4431,0.1636,0.9102,3.7405,28.7328,-4.5573,0,0,0
-0.4148,0.1458,0.9055,3.3053,29.5725,-4.3282,0,0,0
-0.4421,0.1489,0.8975,3.8244,30.5878,-2.2214,0,0,0
-0.4626,0.1694,0.9119,2.1069,30.9466,-0.4351,0,0,0
-0.4775,0.1677,0.917,0.5573,30.8473,-0.1679,0,0,0
-0.4685,0.199,0.915,-3.6718,29.7252,0.1603,0,0,0
-0.4431,0.1721,0.9255,-6.8473,31.9542,1.5115,0,0,0
-0.4558,0.2048,0.9128,-12.1985,34.374,4.6183,0,0,0
-0.4282,0.1438,0.907,-16.3511,41.4962,3.7481,0,0,0
-0.4995,0.1357,0.8455,-12.8931,43.5954,5.1298,0,0,0
-0.5178,0.1548,0.8503,-10.3053,40.0458,5.0382,0,0,0
-0.5486,0.1467,0.8525,-9.7328,35.3511,5.3969,0,0,0
-0.5591,0.1775,0.8513,-10.7176,29.8397,5.5802,0,0,0
-0.572,0.1548,0.8499,-11.3817,25.9008,4.9542,0,0,0
-0.5598,0.196,0.875,-12.3588,25.1374,3.3053,0,0,0
-0.5554,0.1711,0.8782,-15.7176,25.771,0.0305,0,0,0
-0.5408,0.176,0.8533,-16.7176,23.3435,-1.0687,0,0,0
-0.5183,0.1328,0.8833,-17.5878,24.4962,-0.6718,0,0,0
-0.52,0.1218,0.8748,-16.7634,23.0992,0.6565,0,0,0
-0.5334,0.1338,0.8359,-16.2061,19.145,3.7557,0,0,0
-0.5496,0.1353,0.8352,-15.0534,14.7252,5.7557,0,0,0
-0.5735,0.1372,0.8357,-15.1069,12.542,4.4275,0,0,0
-0.5391,0.1541,0.8494,-16.1298,13.2214,2.1298,0,0,0
-0.4966,0.155,0.8523,-17.5802,18.7328,0.7405,0,0,0
-0.4946,0.1084,0.8447,-18.5573,23.9313,3.2977,0,0,0
-0.4963,0.1226,0.8325,-17.5496,26.5649,4.2214,0,0,0
-0.5217,0.1084,0.843,-16.4275,30.4809,5.0611,0,0,0
-0.5876,0.1416,0.8408,-16.4809,27.2443,6.2748,0,0,0
-0.584,0.1182,0.8462,-18.3359,26.084,4.4427,0,0,0
-0.6138,0.1113,0.8271,-16.6107,22.3435,6.2595,0,0,0
-0.6182,0.1089,0.8157,-15.2672,16.1527,6.5954,0,0,0
-0.6245,0.1521,0.8066,-13.7939,12.0763,5.9466,0,0,0
-0.6086,0.1384,0.8127,-16.1832,7.8244,5.7863,0,0,0
-0.5979,0.1248,0.8018,-16.7939,4.6031,6.8168,0,0,0
-0.5999,0.1287,0.7996,-16.0229,4.3206,8.4046,0,0,0
-0.6255,0.1223,0.8169,-16.4122,3.084,7.7405,0,0,0
-0.6362,0.1462,0.8167,-18.1756,-0.313,8.1221,0,0,0
-0.6543,0.1284,0.8284,-20.2137,-5.1145,6.6412,0,0,0
-0.6375,0.1819,0.825,-24.0458,-11.0611,6.1603,0,0,0
-0.5828,0.1465,0.8472,-29.7634,-13.1221,5.5954,0,0,0
-0.5403,0.1079,0.8474,-33.0305,-13.4351,7.1985,0,0,0
-0.5391,0.0854,0.8269,-32.1374,-11.7939,10.5496,0,0,0
-0.5596,0.0828,0.8137,-29.2366,-10.1374,10.4733,0,0,0
-0.5522,0.0769,0.8215,-26.0229,-7.7099,7.9008,0,0,0
-0.5342,0.0593,0.8401,-23.626,-6.0458,10.1756,0,0,0
-0.5354,0.0544,0.8557,-21.9466,-3.5115,13.1679,0,0,0
-0.5718,0.0559,0.8423,-19.7405,-2.313,12.5191,0,0,0
-0.5879,0.0762,0.835,-16.145,-2.771,10.0687,0,0,0
-0.5696,0.0889,0.8494,-16.0916,-3.771,8.4275,0,0,0
-0.5715,0.1226,0.8547,-18.9084,-5.8855,9.4885,0,0,0
-0.5662,0.1111,0.8433,-22.916,-9.8321,9.7176,0,0,0
-0.5598,0.0857,0.8398,-24.8702,-11.2137,12.1069,0,0,0
-0.5305,0.1099,0.8376,-25.5954,-11.0534,12.5649,0,0,0
-0.552,0.0696,0.8525,-26.7023,-8.3893,11.1603,0,0,0
-0.554,0.061,0.8333,-24.7328,-6.374,12.3359,0,0,0
-0.5752,0.061,0.8269,-21.8779,-4.916,13.084,0,0,0
-0.5796,0.0798,0.8303,-19.5954,-3.7481,10.2214,0,0,0
-0.6018,0.0791,0.8286,-17.6641,-6.2214,7.9313,0,0,0
-0.5549,0.1035,0.8574,-17.9389,-6.0382,3.8779,0,0,0
-0.5532,0.0527,0.854,-18.3664,-6.7863,4.1298,0,0,0
-0.5513,0.0383,0.8677,-16.9618,-7.8626,4.5038,0,0,0
-0.5598,0.0427,0.8437,-15.6183,-9.1908,6.1527,0,0,0
-0.5676,0.0378,0.8528,-14.0611,-10.9771,6.6183,0,0,0
-0.5537,0.0625,0.8503,-14.1756,-12.1832,6.5954,0,0,0
-0.5337,0.0984,0.8674,-17.6641,-10.8015,7.2824,0,0,0
-0.5471,0.0864,0.8787,-23.5649,-10.0763,9.7023,0,0,0
-0.5068,0.0503,0.9045,-27.1756,-10.4351,12.0687,0,0,0
-0.5134,0.0251,0.9099,-26.9466,-7.3817,13.626,0,0,0
-0.5286,0.0227,0.8909,-25.8397,-4.8321,13.1756,0,0,0
-0.5413,0.04,0.8674,-23.7405,-2.7328,12.1069,0,0,0
-0.5801,0.0493,0.8423,-23.4504,-4.6412,13.0229,0,0,0
-0.5845,0.0681,0.8618,-26.3969,-9.6107,15.4351,0,0,0
-0.5613,0.0532,0.886,-31.313,-16.0916,18.1069,0,0,0
-0.5168,0.0649,0.8923,-34.8168,-17.2214,19.1145,0,0,0
-0.5313,0.0283,0.8735,-37.2519,-16.3588,20.4962,0,0,0
-0.5242,-0.0159,0.8774,-33.5802,-16.2748,20.0458,0,0,0
-0.5371,0.0071,0.8577,-30.5954,-15.9313,19.2061,0,0,0
-0.5293,0.0095,0.8838,-28.8931,-17.1298,18.7481,0,0,0
-0.5613,0.0461,0.8721,-30.1756,-20.3588,19.6336,0,0,0
-0.5071,-0.0007,0.8882,-31.4809,-21.5954,19.7099,0,0,0
-0.5334,0.0442,0.8372,-30.687,-20.7099,22.542,0,0,0
-0.5649,0.0684,0.864,-32.6031,-24.7863,22.5725,0,0,0
-0.4963,-0.0071,0.8691,-33.9847,-25.5191,17.5573,0,0,0
-0.4971,-0.0054,0.8381,-30.5649,-29.3359,18.8168,0,0,0
-0.4753,-0.0186,0.8755,-27.8931,-32.5954,19.0,0,0,0
-0.4302,-0.0706,0.8931,-25.4351,-29.8321,17.2137,0,0,0
-0.4297,-0.0005,0.8926,-18.855,-25.3588,20.8779,0,0,0
-0.4661,-0.0132,0.9214,-15.9542,-22.5114,20.3206,0,0,0
-0.5125,-0.0178,0.9136,-14.3511,-18.7023,14.7481,0,0,0
-0.5222,0.0178,0.9138,-12.9008,-19.9542,9.0229,0,0,0
-0.4961,0.0334,0.9207,-16.2061,-18.7557,4.4962,0,0,0
-0.4839,-0.0083,0.9358,-19.7557,-22.0534,4.1603,0,0,0
-0.4666,-0.0137,0.9058,-21.3511,-26.5114,3.7252,0,0,0
-0.4434,-0.0188,0.8945,-21.5725,-27.5802,5.9542,0,0,0
-0.4246,-0.0481,0.9031,-19.1603,-24.5725,7.2519,0,0,0
-0.4397,-0.0215,0.8821,-16.4351,-22.1221,7.6794,0,0,0
-0.4646,-0.0374,0.8923,-12.9313,-21.2748,6.4885,0,0,0
-0.467,-0.0369,0.9001,-8.5115,-18.916,2.6183,0,0,0
-0.4604,-0.0269,0.8899,-2.626,-16.8855,1.2824,0,0,0
-0.4634,-0.0178,0.9045,1.3435,-13.9924,-0.3359,0,0,0
-0.4563,-0.02,0.9243,4.1221,-12.4962,-3.4656,0,0,0
-0.4543,-0.009,0.9214,6.9084,-11.7863,-5.7405,0,0,0
-0.4426,-0.0273,0.9158,9.7786,-11.6183,-9.4122,0,0,0
-0.4531,-0.0469,0.9009,14.7786,-12.2595,-13.374,0,0,0
-0.4539,-0.0369,0.8945,21.9008,-14.2824,-16.374,0,0,0
-0.4412,-0.0488,0.8733,28.5038,-16.3282,-17.5725,0,0,0
-0.4287,-0.0659,0.8728,38.6489,-19.5038,-16.5725,0,0,0
-0.4402,-0.0471,0.8584,47.5115,-24.0229,-15.4733,0,0,0
-0.4392,-0.0154,0.8699,54.7099,-27.5191,-9.5573,0,0,0
-0.4375,-0.0137,0.9116,59.6031,-28.2214,-8.3893,0,0,0
-0.4648,0.0354,0.9202,61.8092,-30.0916,-13.0916,0,0,0
-0.4712,0.0361,0.9209,63.7023,-38.9466,-17.2595,0,0,0
-0.4336,0.0564,0.9407,63.7176,-46.9008,-17.1527,0,0,0
-0.4207,0.0911,0.9526,60.7405,-54.6947,-16.0992,0,0,0
-0.3638,0.1409,0.9705,54.5496,-56.1756,-15.7405,0,0,0
-0.3401,0.1494,0.9692,45.916,-53.8855,-16.3511,0,0,0
-0.3542,0.1201,0.9358,40.1374,-58.1527,-12.8779,0,0,0
-0.3525,0.0989,0.9248,36.855,-67.7863,-7.084,0,0,0
-0.3584,0.083,0.9248,36.7786,-74.9542,-5.3282,0,0,0
-0.2729,0.0613,0.8992,37.1527,-80.5038,2.0611,0,0,0
-0.1636,0.0696,0.957,44.0458,-88.8244,20.9389,0,0,0
-0.2363,0.1582,1.0857,36.0763,-71.6794,15.9847,0,0,0
-0.2639,0.1943,1.0618,23.1679,-56.2519,9.0382,0,0,0
-0.2759,0.1421,0.9863,18.5496,-46.145,0.687,0,0,0
-0.2705,0.1443,0.9609,19.5954,-45.3206,-4.229,0,0,0
-0.2104,0.1375,1.0356,16.4809,-44.771,-2.3664,0,0,0
-0.165,0.1594,1.0693,8.4733,-41.7252,2.5267,0,0,0
-0.1672,0.1562,1.0659,2.8855,-33.3969,7.3893,0,0,0
-0.2026,0.1548,1.0344,0.8397,-21.8473,6.2748,0,0,0
-0.2268,0.1377,0.9944,3.4809,-15.374,2.8702,0,0,0
-0.2263,0.1528,1.0112,5.5344,-10.084,-0.5267,0,0,0
-0.2268,0.1575,1.0212,5.7863,-7.5267,-4.4656,0,0,0
-0.21,0.1411,1.0181,4.7328,-6.8244,-4.1527,0,0,0
-0.1987,0.1492,1.0212,4.4427,-5.2519,-1.2901,0,0,0
-0.2273,0.1626,1.0369,2.6412,-2.9237,0.3053,0,0,0
-0.2881,0.189,1.0466,-0.8855,-4.8015,-4.9542,0,0,0
-0.301,0.2117,1.0115,-6.5115,-7.9847,-8.1527,0,0,0
-0.2654,0.179,1.0,-11.458,-15.0611,-9.8473,0,0,0
-0.25,0.165,0.9734,-13.5267,-18.5649,-8.9389,0,0,0
-0.2593,0.1599,0.9873,-14.1603,-19.1603,-10.8931,0,0,0
-0.2935,0.1409,1.02,-14.1527,-20.3817,-19.8168,0,0,0
-0.2202,0.1296,1.0034,-13.3359,-21.3206,-23.1603,0,0,0
-0.1704,0.0884,0.9968,-9.9695,-23.3206,-18.7023,0,0,0
-0.1921,0.1106,0.9988,-6.1908,-23.9771,-12.626,0,0,0
-0.2773,0.1155,0.9797,-8.3206,-31.2748,-13.4122,0,0,0
-0.2776,0.1755,0.9734,-11.5191,-44.626,-18.9237,0,0,0
-0.1997,0.1919,1.0276,-17.1527,-51.6794,-20.7939,0,0,0
-0.1274,0.1567,1.0317,-23.145,-47.0534,-19.9695,0,0,0
-0.0815,0.0879,0.9883,-21.458,-37.1603,-18.2824,0,0,0
-0.0557,0.0535,0.9631,-15.4351,-26.8244,-15.7405,0,0,0
-0.0537,0.0564,0.9573,-8.2366,-16.5954,-15.0382,0,0,0
-0.0874,0.0732,0.9746,-3.8244,-12.8702,-12.8321,0,0,0
-0.1387,0.1167,1.0139,-3.313,-10.4046,-10.7634,0,0,0
-0.1436,0.1328,1.0371,-7.1527,-10.0458,-12.3511,0,0,0
-0.1406,0.1211,1.0234,-9.2672,-9.1145,-12.7634,0,0,0
-0.1094,0.0999,1.0161,-10.3511,-6.6947,-11.084,0,0,0
-0.042,0.0623,1.0164,-8.1298,1.0763,-6.1069,0,0,0
-0.0435,0.0452,0.9932,-3.229,12.374,-0.5267,0,0,0
-0.0779,0.0681,0.9646,4.0992,20.6565,4.4046,0,0,0
-0.1177,0.0842,0.9924,8.5191,27.1603,5.7634,0,0,0
-0.1404,0.1331,1.0051,8.1374,34.4504,5.4885,0,0,0
-0.1458,0.1069,1.0066,7.0229,39.1985,4.8473,0,0,0
-0.1016,0.0808,1.0237,8.1985,46.0076,8.1298,0,0,0
-0.1096,0.0854,1.0295,9.0153,54.1679,10.8779,0,0,0
-0.1543,0.1072,1.0188,9.8702,59.5649,12.8473,0,0,0
-0.2219,0.1157,0.9954,9.4504,58.1069,10.5573,0,0,0
-0.2815,0.1477,0.9731,9.0,47.9237,6.3435,0,0,0
-0.3105,0.1694,0.9966,4.8702,35.7863,3.8779,0,0,0
-0.3025,0.1831,1.019,-1.5191,26.3511,0.771,0,0,0
-0.2107,0.1792,1.0586,-7.9542,28.5038,-1.7176,0,0,0
-0.2231,0.1123,1.0198,-10.1832,36.8779,-1.6947,0,0,0
-0.2339,0.082,0.9663,-6.4427,38.5954,-2.1985,0,0,0
-0.2175,0.1206,0.9797,-2.9542,41.6183,-0.5802,0,0,0
-0.252,0.0959,0.9844,-3.3053,41.1985,1.7481,0,0,0
-0.2764,0.1138,0.9622,-1.0229,40.2061,1.6947,0,0,0
-0.3201,0.1206,0.9419,0.0076,32.5878,1.2672,0,0,0
-0.3269,0.1248,0.9509,0.8855,25.5954,0.5725,0,0,0
-0.3279,0.1421,0.9585,-0.229,16.4198,1.6183,0,0,0
-0.3394,0.1355,0.9724,-1.7557,12.2443,1.4198,0,0,0
-0.363,0.1477,0.9624,-3.5038,7.1908,-0.084,0,0,0
-0.3416,0.1362,0.9951,-5.5649,3.0687,-2.6641,0,0,0
-0.3003,0.1296,1.001,-7.4046,1.9084,-3.9084,0,0,0
-0.292,0.1235,0.9841,-8.7099,-0.6031,-2.7939,0,0,0
-0.2957,0.1282,0.9565,-9.2977,-2.8473,-1.4809,0,0,0
-0.3035,0.1194,0.9521,-9.5191,-5.084,-1.8168,0,0,0
-0.2756,0.1028,0.9529,-7.3206,-2.9618,-1.8779,0,0,0
-0.2715,0.1016,0.9536,-4.5725,-0.4275,-0.0611,0,0,0
-0.2576,0.0981,0.9644,-1.9924,0.4198,1.2595,0,0,0
-0.2617,0.1086,0.9568,-0.458,2.9389,2.916,0,0,0
-0.3005,0.1116,0.9609,1.6031,3.7634,2.8397,0,0,0
-0.3123,0.1318,0.9854,1.3969,3.1679,0.2366,0,0,0
-0.3169,0.1438,0.9988,-0.8931,2.9695,-1.6947,0,0,0
-0.3022,0.1306,0.9978,-3.5954,1.2214,-2.1374,0,0,0
-0.2795,0.1099,0.9885,-4.4656,0.9084,-1.8473,0,0,0
-0.2837,0.113,0.9666,-4.0153,1.771,-1.2672,0,0,0
-0.3362,0.1221,0.9729,-3.2137,0.4733,-4.5725,0,0,0
-0.3188,0.1553,0.991,-5.8321,-0.1832,-8.6031,0,0,0
-0.2891,0.114,0.9868,-7.7176,-3.2672,-7.5038,0,0,0
-0.2666,0.1038,0.9922,-9.1908,-3.4427,-4.3206,0,0,0
-0.2666,0.1008,0.9697,-8.0382,-2.2824,-1.5878,0,0,0
-0.2874,0.0974,0.9514,-5.0611,0.1527,-1.1756,0,0,0
-0.3152,0.1172,0.9556,-3.0458,1.771,-2.6718,0,0,0
-0.3203,0.1228,0.9741,-3.687,0.6412,-4.542,0,0,0
-0.2976,0.1118,0.9917,-5.4122,-0.9008,-5.3511,0,0,0
-0.292,0.1147,0.9836,-7.2061,-1.2595,-5.1069,0,0,0
-0.3076,0.1074,0.9922,-8.9847,-1.9771,-7.4733,0,0,0
-0.291,0.1052,0.9915,-10.0229,-1.4351,-9.4351,0,0,0
-0.3003,0.1106,0.9907,-12.0229,-8.4809,-9.855,0,0,0
-0.2693,0.0959,0.9771,-14.0763,-5.9847,-6.0305,0,0,0
-0.2727,0.071,0.9624,-12.2595,-6.3969,-3.4733,0,0,0
-0.2668,0.0752,0.9395,-10.2519,-5.7863,-3.0992,0,0,0
-0.2869,0.0769,0.9473,-7.4885,-5.0305,-3.4885,0,0,0
-0.2864,0.0803,0.9497,-5.229,-4.4198,-4.0076,0,0,0
-0.2764,0.0723,0.9556,-2.6641,-2.4275,-3.6947,0,0,0
-0.2966,0.0867,0.9575,-1.0153,-0.4351,-4.6489,0,0,0
-0.3215,0.0989,0.9595,-0.7328,-3.229,-7.3206,0,0,0
-0.3064,0.1072,0.9924,-2.5038,-6.0687,-9.0763,0,0,0
-0.3052,0.094,0.9971,-4.9313,-9.0458,-10.0687,0,0,0
-0.2681,0.084,0.9949,-5.5267,-9.9237,-8.9924,0,0,0
-0.2454,0.0623,0.9922,-4.4427,-7.9695,-5.7176,0,0,0
-0.218,0.0564,0.989,-2.2672,-3.2901,-1.5038,0,0,0
-0.2493,0.0635,0.9687,0.2366,1.2901,1.4885,0,0,0
-0.3147,0.0896,0.9661,2.2672,1.084,0.4122,0,0,0
-0.3123,0.106,1.0037,1.8092,-1.0916,-2.8397,0,0,0
-0.3052,0.1096,0.9958,-1.6718,-3.3511,-3.8473,0,0,0
-0.3069,0.094,0.9922,-2.8092,-5.2977,-4.4656,0,0,0
-0.2942,0.0933,0.9902,-2.0,-7.0382,-6.0534,0,0,0
-0.2754,0.0974,1.0071,-2.8626,-4.5649,-8.0076,0,0,0
-0.2632,0.0828,0.988,-2.8397,-4.4122,-7.4122,0,0,0
-0.2751,0.0876,0.9783,-1.3893,-4.7557,-5.6947,0,0,0
-0.2856,0.095,0.9648,-0.1832,-4.6107,-6.3206,0,0,0
-0.2896,0.0908,0.9729,1.1756,-4.3435,-8.0916,0,0,0
-0.291,0.0928,0.9861,2.1756,-2.7939,-9.6641,0,0,0
-0.2979,0.1062,0.9868,1.1374,-3.1145,-12.0076,0,0,0
-0.321,0.1128,0.9788,0.0076,-6.7481,-16.1221,0,0,0
-0.2927,0.0984,0.9829,-0.6107,-9.8855,-19.4046,0,0,0
-0.2778,0.094,0.9946,-0.2748,-10.0305,-21.2901,0,0,0
-0.272,0.0879,0.991,-0.6336,-8.8855,-21.8168,0,0,0
-0.2852,0.0847,0.9575,-0.5267,-9.1756,-22.687,0,0,0
-0.2681,0.0723,0.9724,2.0382,-8.5802,-24.3282,0,0,0
-0.2754,0.0894,0.9565,3.2366,-7.8397,-24.7863,0,0,0
-0.2783,0.0715,0.9734,4.084,-8.7176,-25.3511,0,0,0
-0.241,0.064,0.9954,4.2824,-7.0382,-23.9084,0,0,0
-0.2043,0.0386,1.0188,3.8168,-4.0153,-18.3282,0,0,0
-0.1877,0.052,1.0295,3.3206,0.8244,-10.3435,0,0,0
-0.2314,0.0645,1.012,0.9847,3.7557,-6.2443,0,0,0
-0.2871,0.0889,0.978,-0.7481,0.4275,-3.4046,0,0,0
-0.2817,0.0703,1.009,-2.0992,-3.7023,-3.084,0,0,0
-0.2676,0.0811,1.0195,-3.9695,-4.4809,-3.3435,0,0,0
-0.2434,0.0608,1.0295,-4.687,-1.3588,-1.4198,0,0,0
-0.2449,0.0642,1.0139,-4.5267,2.3588,-1.4962,0,0,0
-0.2542,0.0586,0.9832,-3.5496,3.0382,-0.6794,0,0,0
-0.2559,0.0703,0.9761,-2.5725,3.0076,0.5496,0,0,0
-0.2705,0.0664,0.9814,-2.0992,2.9542,1.5954,0,0,0
-0.291,0.0864,0.9751,-2.2137,2.2748,2.1832,0,0,0
-0.2949,0.0818,0.9731,-2.2824,1.0992,0.6183,0,0,0
-0.2874,0.0779,0.9797,-2.1221,0.626,-1.0305,0,0,0
-0.28,0.0845,0.9724,-1.7252,-0.1832,-2.0611,0,0,0
-0.2495,0.0667,0.9751,-0.771,-1.0534,-1.7405,0,0,0
-0.2268,0.0618,0.9941,0.0076,0.2214,0.3282,0,0,0
-0.2383,0.0662,0.9858,0.3435,1.5878,3.2214,0,0,0
-0.2859,0.0781,0.9895,0.6412,3.3359,2.9313,0,0,0
-0.3115,0.1077,0.9805,-0.1985,1.3893,-0.6107,0,0,0
-0.293,0.0935,0.9888,-2.4504,-2.7481,-1.5496,0,0,0
-0.2507,0.0718,1.0012,-3.3817,-3.0534,-0.6489,0,0,0
-0.2302,0.0608,0.9834,-2.2595,0.4962,0.3435,0,0,0
-0.2681,0.0718,0.9629,-0.4198,3.1069,-0.0534,0,0,0
-0.3027,0.0918,0.9756,-0.4885,-0.8244,-3.229,0,0,0
-0.2537,0.0884,0.9968,-2.2672,-3.1221,-3.0687,0,0,0
-0.2397,0.0776,1.0066,-3.7481,-2.0,-0.5725,0,0,0
-0.2456,0.0796,0.98,-3.1298,0.0458,1.1679,0,0,0
-0.2627,0.0796,0.9722,-1.0916,0.5115,1.2137,0,0,0
-0.2822,0.0911,0.9607,0.7328,1.5038,0.6794,0,0,0
-0.3064,0.103,0.9771,1.2366,0.6565,-1.7634,0,0,0
-0.3008,0.1084,0.9897,1.0992,-1.0305,-3.9924,0,0,0
-0.2849,0.0859,0.9907,-0.2672,-0.855,-4.7939,0,0,0
-0.2676,0.0674,0.9897,-0.9695,-0.7099,-4.1756,0,0,0
-0.2681,0.0806,0.9827,0.084,-2.0916,-3.8321,0,0,0
-0.2646,0.0732,0.9978,-0.5344,-4.0458,-4.0534,0,0,0
-0.2471,0.0635,1.0068,-1.0611,-3.145,-2.9695,0,0,0
-0.24,0.0627,1.0183,-0.7405,-1.4046,-0.5878,0,0,0
-0.259,0.0686,1.0073,-0.8779,-0.3969,0.9618,0,0,0
-0.2729,0.075,0.9878,-0.916,0.0153,0.8931,0,0,0
-0.281,0.0725,0.9893,0.2595,0.3969,0.2595,0,0,0
-0.2754,0.0869,0.9915,0.5115,1.2901,-0.0076,0,0,0
-0.2708,0.0776,0.9907,0.6183,1.3053,0.1298,0,0,0
-0.2737,0.0913,0.9861,1.313,1.1069,0.0076,0,0,0
-0.283,0.0996,0.9888,0.5725,0.916,-0.1069,0,0,0
-0.2827,0.0908,0.9873,0.0534,0.1298,-0.2977,0,0,0
-0.2722,0.094,0.9973,-0.2137,0.7557,-0.6947,0,0,0
-0.2869,0.0894,0.9824,0.0687,1.3282,-1.2366,0,0,0
-0.2957,0.1008,0.9841,0.7557,0.771,-3.0076,0,0,0
-0.2888,0.1113,0.9875,-0.3282,0.2748,-4.2748,0,0,0
-0.2837,0.1006,0.9941,-1.6641,-1.9466,-3.7939,0,0,0
-0.2703,0.095,1.0037,-2.8931,-1.3664,-4.4962,0,0,0
-0.2698,0.0803,0.9836,-3.0153,-0.2977,-5.7557,0,0,0
-0.2478,0.061,0.9871,-0.4809,-0.9771,-3.4809,0,0,0
-0.2571,0.0876,0.9839,0.7099,1.6947,-2.6183,0,0,0
-0.2776,0.0845,0.9902,0.4198,1.771,-3.8779,0,0,0
-0.3044,0.0757,0.9961,0.9466,-0.6565,-5.8092,0,0,0
-0.2739,0.073,1.0042,-2.4885,-4.916,-7.8931,0,0,0
-0.1833,0.05,0.9683,-5.3206,-5.7481,-3.084,0,0,0
-0.2144,0.0215,0.9487,2.6947,-1.2595,3.4656,0,0,0
-0.2485,0.0593,0.9836,7.0382,6.0305,1.8626,0,0,0
-0.3142,0.0981,0.98,5.5573,6.2595,1.2214,0,0,0
-0.3198,0.1169,0.9963,3.2137,2.9695,0.3969,0,0,0
-0.3008,0.1064,1.0049,-0.9008,-2.4504,0.374,0,0,0
-0.2856,0.1038,1.0217,-3.7099,-4.9237,0.1908,0,0,0
-0.2634,0.0889,1.022,-6.7328,-2.1145,-0.5191,0,0,0
-0.2778,0.0801,0.9734,-6.374,0.3893,-1.3282,0,0,0
-0.2917,0.0842,0.9348,-4.2977,-1.0992,-2.1527,0,0,0
-0.2676,0.0708,0.9487,-2.7634,-3.6336,-2.7634,0,0,0
-0.239,0.0698,0.9658,-2.0305,-2.9389,-0.9389,0,0,0
-0.2314,0.0608,0.9751,0.1908,-1.0076,0.4275,0,0,0
-0.2429,0.0737,0.9924,2.5725,1.626,0.9313,0,0,0
-0.2722,0.0981,1.0054,2.6565,2.7252,1.1069,0,0,0
-0.2952,0.1179,1.0237,0.8168,2.2672,0.1679,0,0,0
-0.3064,0.1245,1.0203,-1.9389,-0.0458,-0.542,0,0,0
-0.293,0.1182,1.0203,-4.9084,-1.5496,-1.4656,0,0,0
-0.2756,0.1123,0.9993,-6.6947,-2.7176,-2.0,0,0,0
-0.2634,0.0884,0.9722,-5.3435,-2.8931,-1.0458,0,0,0
-0.2668,0.0813,0.9756,-3.1069,-1.4351,-0.5573,0,0,0
-0.2666,0.0791,0.9839,-1.0305,0.1069,-1.3435,0,0,0
-0.2776,0.0894,0.9885,-0.3511,0.4962,-1.7405,0,0,0
-0.2869,0.105,0.9949,-2.0458,-0.5649,-1.687,0,0,0
-0.2974,0.0996,0.9888,-4.6107,-2.229,-3.1756,0,0,0
-0.2805,0.0737,0.9766,-6.2748,-3.7939,-4.1374,0,0,0
-0.2666,0.073,0.9578,-6.626,-4.7634,-3.5649,0,0,0
-0.2014,0.0352,0.8999,-5.0458,-2.6183,-1.5649,0,0,0
-0.238,0.0144,0.887,6.229,-1.145,-0.8397,0,0,0
-0.2664,0.0654,0.9592,11.5802,4.1069,-0.7176,0,0,0
-0.2839,0.092,1.0107,7.1908,3.1298,-1.8397,0,0,0
-0.2764,0.0928,1.0161,2.7099,0.0153,-1.2061,0,0,0
-0.2808,0.083,1.03,0.229,-4.2748,-0.3206,0,0,0
-0.2747,0.094,1.0525,-3.7863,-4.7176,-1.9008,0,0,0
-0.2485,0.0789,1.0151,-7.3893,-3.1527,-1.0305,0,0,0
-0.2622,0.064,0.9739,-5.9771,-2.3588,0.5954,0,0,0
-0.2668,0.0696,0.9607,-2.8397,-2.0229,0.4962,0,0,0
-0.2639,0.0774,0.9795,0.2901,0.1145,0.5725,0,0,0
-0.2783,0.0859,0.9949,2.0305,1.4656,0.7023,0,0,0
-0.2883,0.0999,1.0083,1.542,1.3282,0.2672,0,0,0
-0.2878,0.1006,1.0176,-0.2061,0.4427,-0.3282,0,0,0
-0.2749,0.1006,1.0076,-1.6947,-0.771,-0.0229,0,0,0
-0.2766,0.092,1.0027,-2.9389,-2.626,0.313,0,0,0
-0.2649,0.0869,1.002,-3.145,-4.313,1.1603,0,0,0
-0.2493,0.0928,1.011,-4.2977,-2.7252,2.2977,0,0,0
-0.2576,0.0889,0.9705,-4.2214,0.7176,2.855,0,0,0
-0.2747,0.0852,0.9409,-0.3588,0.9542,2.4504,0,0,0
-0.2722,0.093,0.9685,2.4427,-0.1221,1.2672,0,0,0
-0.2634,0.1011,0.9924,2.0687,0.8931,0.5038,0,0,0
-0.2661,0.0947,0.9968,1.3588,0.9847,1.3511,0,0,0
-0.2742,0.1006,1.0044,0.6183,0.3817,1.5267,0,0,0
-0.282,0.106,0.9971,-0.5191,-0.3206,0.4351,0,0,0
-0.2793,0.103,0.9934,-2.0305,-1.1374,-0.1374,0,0,0
-0.2744,0.095,0.9807,-2.4275,-1.8092,-1.1374,0,0,0
-0.2686,0.0884,0.9785,-2.6641,-2.3359,-1.4122,0,0,0
-0.2556,0.083,0.9795,-2.3511,-1.7176,-0.8015,0,0,0
-0.2539,0.0842,0.9739,-2.2137,-1.2366,-0.1374,0,0,0
-0.26,0.0803,0.9687,-1.6336,-1.4733,0.1374,0,0,0
-0.2495,0.073,0.9751,-0.4046,-0.5802,0.1832,0,0,0
-0.2534,0.0828,0.9751,0.6489,0.313,0.7099,0,0,0
-0.2625,0.0842,0.9963,0.1756,0.2977,1.7481,0,0,0
-0.2649,0.0903,0.9941,-0.5038,0.5115,1.6947,0,0,0
-0.283,0.0918,0.9949,-1.3664,-0.0305,1.7176,0,0,0
-0.2725,0.0923,0.9849,-1.9084,-1.0458,1.4656,0,0,0
-0.2668,0.0894,0.9895,-1.9847,-0.9924,1.9237,0,0,0
-0.2808,0.0889,0.9851,-1.5725,-0.4198,1.7481,0,0,0
-0.2864,0.0906,0.9893,-0.9389,-0.8931,0.3511,0,0,0
-0.2695,0.0891,0.9915,-0.5191,-1.2443,0.0153,0,0,0
-0.2654,0.0842,0.999,-0.3282,-0.1374,0.6412,0,0,0
-0.269,0.0857,0.9983,-0.7328,0.2672,0.3359,0,0,0
-0.2578,0.0818,0.9866,-1.1374,0.0076,1.3664,0,0,0
-0.2534,0.0823,0.9915,-1.0763,0.9313,2.4122,0,0,0
-0.2708,0.0757,0.9834,-1.374,0.855,2.8626,0,0,0
-0.2827,0.0977,0.9783,-1.0229,0.374,2.4046,0,0,0
-0.2751,0.0969,0.9966,-0.6947,0.4809,1.1756,0,0,0
-0.2798,0.1106,0.9902,-1.3435,1.0458,0.8244,0,0,0
-0.2786,0.1089,0.9885,-2.7557,0.2901,-0.0305,0,0,0
-0.2583,0.0913,0.9951,-3.1374,-0.6107,-0.2214,0,0,0
-0.2366,0.0859,0.9839,-3.4122,-0.2519,0.8321,0,0,0
-0.2417,0.0959,0.9668,-2.7557,1.5649,2.9771,0,0,0
-0.2815,0.1057,0.9504,-1.5344,1.3893,3.229,0,0,0
-0.2922,0.1116,0.9536,-0.3893,0.5038,1.6947,0,0,0
-0.2881,0.1187,0.978,0.4962,-0.0382,-0.2366,0,0,0
-0.2952,0.1274,0.9878,-0.8397,-0.8779,-1.7634,0,0,0
-0.2842,0.1199,0.9939,-2.5191,-2.6565,-2.145,0,0,0
-0.2637,0.1057,0.9893,-3.0763,-3.229,-2.2595,0,0,0
-0.2524,0.0967,1.0,-1.6641,-1.4885,-2.2061,0,0,0
-0.2488,0.0962,0.988,-0.4351,0.3206,-2.1985,0,0,0
-0.2542,0.1025,0.9893,-0.1221,0.5267,-1.5954,0,0,0
-0.2583,0.1047,1.0005,-0.4885,-0.0229,0.084,0,0,0
-0.2629,0.106,1.0027,-0.7023,0.2366,0.626,0,0,0
-0.2786,0.1072,0.9944,-0.7481,0.0382,0.4122,0,0,0
-0.3015,0.1128,0.9778,-0.916,0.0,-0.4122,0,0,0
-0.29,0.1062,0.9924,-1.4198,-1.8779,-2.2901,0,0,0
-0.2751,0.0979,0.9829,-1.771,-2.5496,-2.5954,0,0,0
-0.2603,0.0864,0.978,-1.5115,-2.5878,-2.0153,0,0,0
-0.248,0.0811,0.9744,-0.3206,-0.2214,-0.6183,0,0,0
-0.2612,0.0852,0.9832,0.2748,0.4733,-0.4809,0,0,0
-0.2793,0.0923,0.9907,-0.6794,-0.2061,-0.9618,0,0,0
-0.2795,0.0913,1.0005,-1.8473,-0.916,-1.374,0,0,0
-0.2751,0.0847,0.9895,-2.8015,-1.3588,-1.5038,0,0,0
-0.2651,0.0759,0.9819,-2.687,-1.0382,-1.1603,0,0,0
-0.2537,0.072,0.9785,-1.4809,0.1908,-0.6489,0,0,0
-0.2727,0.0837,0.9805,-1.0611,0.2061,-1.5573,0,0,0
-0.2598,0.0767,0.9868,-1.2901,0.2519,-1.4656,0,0,0
-0.2786,0.0867,0.9856,-2.1603,0.7252,-0.7557,0,0,0
-0.2915,0.0854,0.9841,-3.4733,-1.1603,-1.2595,0,0,0
-0.2698,0.0798,0.9854,-3.8931,-2.0076,-1.2748,0,0,0
-0.2561,0.0679,0.9822,-2.7939,-1.1374,-0.3893,0,0,0
-0.259,0.0803,0.978,-1.626,0.145,0.4656,0,0,0
-0.261,0.0862,0.9871,-1.1756,0.0992,-0.2137,0,0,0
-0.2402,0.0806,0.9949,-0.8092,0.8779,0.9771,0,0,0
-0.2429,0.0962,1.0007,-0.8931,2.3053,2.7176,0,0,0
-0.2688,0.1064,0.9939,-1.7481,2.2366,3.2137,0,0,0
-0.2815,0.1199,0.9856,-1.4885,1.3664,3.0229,0,0,0
-0.2844,0.1196,0.9846,-1.7176,0.7557,2.2214,0,0,0
-0.2991,0.1326,0.9709,-1.9924,0.5954,1.1603,0,0,0
-0.3008,0.1309,0.9788,-1.7634,-1.2366,-1.6183,0,0,0
-0.2788,0.1226,0.9822,-2.4504,-2.8092,-2.1145,0,0,0
-0.2673,0.1206,0.9934,-2.6641,-2.0382,-2.0076,0,0,0
-0.2715,0.1125,0.9802,-3.145,-1.4351,-2.2214,0,0,0
-0.2705,0.105,0.9812,-2.5267,-1.5878,-2.855,0,0,0
-0.2673,0.1008,0.9839,-2.3435,-2.0763,-2.9008,0,0,0
-0.251,0.092,0.9932,-2.0687,-1.9695,-2.855,0,0,0
-0.2419,0.0862,1.0007,-1.313,-0.458,-1.771,0,0,0
-0.2581,0.0889,0.9939,-0.916,0.7252,-1.3282,0,0,0
-0.2693,0.0942,0.9893,-0.9695,0.5802,-1.4504,0,0,0
-0.2742,0.0969,0.9902,-1.8244,-1.0687,-1.458,0,0,0
-0.2712,0.0903,0.9873,-2.1221,-0.9771,-1.4809,0,0,0
-0.2732,0.094,0.9753,-1.6489,-0.1603,-1.6107,0,0,0
-0.2834,0.0945,0.9719,-1.1603,-1.2443,-1.8626,0,0,0
-0.2771,0.0874,0.9922,-1.3969,-1.8168,-2.1527,0,0,0
-0.2676,0.0916,0.9919,-2.2748,-0.9924,-1.9008,0,0,0
-0.2681,0.0869,0.9832,-2.5038,-0.9237,-1.2672,0,0,0
-0.2673,0.0845,0.99,-2.0534,-0.7557,-0.6641,0,0,0
-0.2759,0.0859,0.9849,-2.0458,-0.1527,-0.5191,0,0,0
-0.2808,0.0886,0.9854,-1.8092,-0.5496,-0.8168,0,0,0
-0.2786,0.0908,0.9902,-2.0382,-0.8397,-1.8626,0,0,0
-0.2703,0.0869,0.9856,-2.0992,-0.5802,-1.8855,0,0,0
-0.2622,0.082,0.9858,-1.8626,-0.9847,-1.3435,0,0,0
-0.2563,0.084,0.9885,-1.3893,-0.7176,-0.4275,0,0,0
-0.2634,0.0872,0.9934,-1.7405,0.6412,-0.1527,0,0,0
-0.2705,0.0945,0.9888,-2.0534,0.3359,0.0534,0,0,0
-0.2729,0.0938,0.9878,-2.4962,-0.6489,0.458,0,0,0
-0.2664,0.0928,1.0,-2.7328,-0.6718,0.1679,0,0,0
-0.2708,0.1006,0.989,-3.0076,-0.2443,-0.1908,0,0,0
-0.2725,0.0933,0.9773,-2.4122,-0.5191,-0.4427,0,0,0
-0.2615,0.0947,0.9846,-1.771,0.0763,-0.458,0,0,0
-0.2598,0.0986,0.9802,-1.2366,0.3664,-0.5954,0,0,0
-0.2698,0.1047,0.9873,-0.9542,0.6565,0.145,0,0,0
-0.2798,0.1016,0.9863,-1.5344,-0.1985,-0.2061,0,0,0
-0.2742,0.1033,0.9905,-1.9542,-0.6107,-0.6183,0,0,0
-0.2778,0.1057,0.9939,-2.4427,-0.5649,-0.9084,0,0,0
-0.283,0.1008,0.9817,-3.1603,-1.0076,-1.9313,0,0,0
-0.2783,0.0974,0.9751,-2.9542,-2.0916,-1.1679,0,0,0
-0.2786,0.0979,0.9788,-2.4733,-1.4656,-1.8855,0,0,0
-0.2622,0.0903,0.9858,-1.4962,-1.3053,-3.1145,0,0,0
-0.2549,0.0859,0.9932,-0.626,-0.9084,-2.4809,0,0,0
-0.2515,0.0842,0.9988,-0.3664,-0.1145,-1.7786,0,0,0
-0.2578,0.0811,1.0015,-1.0076,0.145,-0.6565,0,0,0
-0.2603,0.085,0.9993,-1.7863,-0.0763,1.1145,0,0,0
-0.2764,0.0911,0.9907,-1.9542,0.5954,1.458,0,0,0
-0.2871,0.0928,0.9893,-2.1756,0.2595,-0.5878,0,0,0
-0.2788,0.0903,0.978,-1.9847,-0.5725,-1.2824,0,0,0
-0.2625,0.0886,0.9824,-1.6489,-0.7176,-1.2748,0,0,0
-0.2517,0.0857,0.9832,-0.8931,0.4351,-0.7939,0,0,0
-0.2568,0.0881,0.9895,-0.3893,1.5191,0.0992,0,0,0
-0.2683,0.0996,0.9819,-1.1374,1.0534,1.313,0,0,0
-0.2813,0.0981,0.9851,-2.0611,0.2061,1.5802,0,0,0
-0.2993,0.1099,0.9751,-2.4046,-0.2443,-0.3435,0,0,0
-0.2888,0.106,0.9778,-2.4504,-2.1832,-1.9847,0,0,0
-0.2627,0.0923,0.9819,-1.7252,-2.4275,-1.8321,0,0,0
-0.2568,0.0952,0.9897,-0.7252,-0.8931,-1.2137,0,0,0
-0.2588,0.0876,0.9968,-0.0992,0.3664,-1.916,0,0,0
-0.2478,0.0854,1.0017,0.5649,0.542,-0.9389,0,0,0
-0.2576,0.0923,1.0051,-1.0687,0.3206,0.8855,0,0,0
-0.2773,0.0986,0.9998,-2.6336,0.1298,0.8779,0,0,0
-0.2903,0.0981,0.978,-3.3511,-0.2519,-0.3817,0,0,0
-0.2813,0.0962,0.9622,-2.7176,-1.5038,-0.5649,0,0,0
-0.2732,0.095,0.9795,-2.1221,-1.3511,-1.1679,0,0,0
-0.2595,0.0945,0.9822,-1.145,-0.4275,-1.5191,0,0,0
-0.2603,0.0906,0.9822,0.4351,0.0,-0.9084,0,0,0
-0.2576,0.0942,0.9988,0.8244,0.0992,-0.4122,0,0,0
-0.261,0.0999,1.0085,-0.9542,0.5878,0.3817,0,0,0
-0.2822,0.1033,1.0017,-2.6336,0.5038,0.9466,0,0,0
-0.3052,0.1055,0.9832,-3.4275,-0.8779,-0.6794,0,0,0
-0.2825,0.1006,0.98,-3.5802,-1.9771,-2.0153,0,0,0
-0.2671,0.0833,0.9766,-2.4656,-1.1298,-2.0305,0,0,0
-0.2632,0.0859,0.9668,-0.4809,-0.3664,-1.374,0,0,0
-0.2622,0.0874,0.9817,0.4275,-0.4504,-0.5878,0,0,0
-0.2615,0.0969,0.9973,-0.6641,-0.0611,-0.2519,0,0,0
-0.2808,0.095,1.0032,-1.6107,-0.5878,-0.0687,0,0,0
-0.2717,0.1008,1.0,-2.4504,-1.0687,-0.5725,0,0,0
-0.2717,0.0852,0.9878,-3.1756,-1.4275,-1.3969,0,0,0
-0.2556,0.0796,0.9788,-3.1832,-1.7099,-1.1069,0,0,0
-0.2488,0.0737,0.981,-2.2366,-0.5038,-0.0305,0,0,0
-0.2561,0.0786,0.9773,-1.1908,-0.1374,0.9847,0,0,0
-0.2695,0.0898,0.9849,-0.8397,0.2748,1.1908,0,0,0
-0.2876,0.0901,0.98,-0.084,-1.0916,1.7481,0,0,0
-0.2739,0.1104,0.9993,-0.771,0.0992,1.7557,0,0,0
-0.2905,0.1125,0.9922,-1.7786,0.0382,-0.626,0,0,0
-0.271,0.1062,0.991,-1.8473,-0.9618,-0.9237,0,0,0
-0.2681,0.1011,1.0054,-2.2672,-0.5649,-0.5115,0,0,0
-0.2737,0.1108,0.9841,-2.9618,-0.2901,-0.3053,0,0,0
-0.2737,0.0959,0.9822,-2.7023,-0.9084,-0.084,0,0,0
-0.2678,0.0979,0.9778,-1.8855,-0.3435,0.0,0,0,0
-0.2742,0.0986,0.979,-0.9771,0.0687,-0.6412,0,0,0
-0.2698,0.0999,0.9778,-0.5725,-0.5344,-0.8321,0,0,0
-0.2686,0.0989,0.9878,-0.8092,-0.6107,-0.5649,0,0,0
-0.2776,0.1035,0.9878,-1.5344,-1.0458,-0.542,0,0,0
-0.2756,0.1001,0.99,-2.0,-1.4504,-1.458,0,0,0
-0.2598,0.0928,0.9819,-2.145,-1.3511,-0.8473,0,0,0
-0.2576,0.094,0.988,-2.0076,-0.5038,-0.9542,0,0,0
-0.2556,0.0881,0.9844,-1.9771,-0.4656,-1.1832,0,0,0
-0.26,0.0889,0.9839,-1.9695,-0.7557,-0.3664,0,0,0
-0.2673,0.0964,0.9912,-2.0458,-0.8473,-0.229,0,0,0
-0.2705,0.0933,0.9863,-2.0611,-0.6718,0.0687,0,0,0
-0.2813,0.1028,0.9773,-2.4122,-0.7863,-0.5267,0,0,0
-0.2834,0.0969,0.9783,-1.9771,-1.4504,-1.1527,0,0,0
-0.2815,0.0979,0.9932,-1.9084,-1.2443,-1.4275,0,0,0
-0.2874,0.104,0.9868,-2.9771,-1.9389,-2.687,0,0,0
-0.2639,0.0867,0.9934,-2.9237,-2.4656,-3.0076,0,0,0
-0.2373,0.0864,0.9968,-2.2061,-0.916,-2.2519,0,0,0
-0.2471,0.0837,0.991,-2.2519,0.2137,-0.7252,0,0,0
-0.2625,0.0923,0.9851,-2.5267,0.3893,0.6031,0,0,0
-0.2722,0.0894,0.988,-2.3206,-0.0305,0.9237,0,0,0
-0.2893,0.0999,0.9849,-2.542,-0.0382,-0.5344,0,0,0
-0.2947,0.0962,0.9697,-2.855,-1.5496,-1.5038,0,0,0
-0.2781,0.0918,0.9817,-2.6718,-2.9237,-2.3664,0,0,0
-0.2637,0.0876,0.9817,-2.3282,-2.1985,-2.6718,0,0,0
-0.2405,0.0803,0.9924,-1.1069,-1.458,-2.0611,0,0,0
-0.2424,0.0837,1.0032,-0.5649,-0.542,-0.313,0,0,0
-0.2556,0.0933,1.0039,-1.2595,0.1527,0.6718,0,0,0
-0.2656,0.0894,0.9995,-1.7863,0.5496,0.5954,0,0,0
-0.2712,0.0933,0.9897,-2.0076,0.3359,1.0611,0,0,0
-0.2769,0.0908,0.9851,-2.3588,-0.3664,0.8779,0,0,0
-0.2764,0.0867,0.9758,-1.771,0.0611,0.5802,0,0,0
-0.2788,0.094,0.9722,-0.7481,0.1985,0.2519,0,0,0
-0.2856,0.0933,0.9758,-0.7786,-0.5038,-1.7023,0,0,0
-0.2605,0.085,0.9814,-1.2901,-1.8702,-1.6565,0,0,0
-0.2468,0.0938,0.9995,-1.9924,-1.7634,1.4733,0,0,0
-0.2568,0.0911,0.9924,-1.9313,0.4046,1.9618,0,0,0
-0.2847,0.1038,0.979,-0.7252,1.3359,0.1221,0,0,0
-0.2922,0.116,0.9866,-0.7634,-0.5954,-1.4733,0,0,0
-0.2639,0.1101,1.0022,-2.5649,-1.6718,-1.5191,0,0,0
-0.2666,0.1008,0.9893,-2.9466,-1.0534,-1.1756,0,0,0
-0.2605,0.0989,0.9902,-1.626,-0.313,-1.4809,0,0,0
-0.2617,0.0984,0.9915,-1.4122,0.2214,-2.5573,0,0,0
-0.2524,0.0923,0.99,-1.626,-0.2061,-1.6031,0,0,0
-0.2595,0.0984,0.9897,-2.6107,-0.7939,-0.0611,0,0,0
-0.2598,0.0972,0.9841,-3.0687,-0.6718,-0.1374,0,0,0
-0.2764,0.0901,0.9697,-2.4656,-0.8015,-0.4046,0,0,0
-0.2803,0.0996,0.9661,-1.916,-1.7786,-0.3511,0,0,0
-0.2747,0.0938,0.9697,-1.2748,-1.8855,-0.9237,0,0,0
-0.2695,0.0862,0.9788,-0.0763,-1.5267,-1.4656,0,0,0
-0.2622,0.0852,0.9954,0.3206,-0.8626,-1.1069,0,0,0
-0.2573,0.0916,1.0076,-0.3817,-0.0229,-0.626,0,0,0
-0.2673,0.0947,1.0115,-1.7634,-0.0076,0.1985,0,0,0
-0.2798,0.1001,0.9998,-3.0458,-0.374,-0.2977,0,0,0
-0.2761,0.0854,0.9915,-3.229,-1.2824,-0.4885,0,0,0
-0.2664,0.0847,0.9729,-2.8855,-1.1908,-0.3588,0,0,0
-0.2783,0.0801,0.9648,-2.0,-0.9237,-0.1908,0,0,0
-0.2686,0.0767,0.98,-0.5344,-0.6947,-0.3969,0,0,0
-0.2659,0.0894,0.9866,-0.145,-0.4275,-1.0534,0,0,0
-0.269,0.0833,0.9985,-1.5878,-0.9924,-2.1985,0,0,0
-0.2393,0.0769,0.9927,-2.0916,-1.458,-0.3969,0,0,0
-0.2434,0.0869,0.998,-2.3282,0.4504,1.8473,0,0,0
-0.2671,0.0923,0.9788,-1.7023,1.3588,2.0687,0,0,0
-0.2783,0.0979,0.978,-0.0382,0.5725,0.855,0,0,0
-0.2705,0.1042,0.9907,-0.3588,-0.4809,0.5802,0,0,0
-0.2673,0.1113,1.0032,-0.687,0.0458,0.1985,0,0,0
-0.2759,0.1045,0.9861,-0.5878,0.084,0.1145,0,0,0
-0.2754,0.1025,1.001,-0.4504,-0.5038,-0.8702,0,0,0
-0.2615,0.104,1.0012,-1.4962,-0.3817,-0.626,0,0,0
-0.2612,0.1001,0.9971,-2.1679,-0.2824,0.3435,0,0,0
-0.262,0.1038,0.9836,-2.3206,0.0305,0.8092,0,0,0
-0.2693,0.1013,0.9751,-1.4198,0.1145,0.9008,0,0,0
-0.2683,0.0974,0.9771,-0.8015,-0.084,0.2901,0,0,0
-0.2615,0.093,0.9768,-0.2824,-0.2901,0.7099,0,0,0
-0.2703,0.0991,0.9836,-0.4962,0.5038,0.4656,0,0,0
-0.282,0.1052,0.9866,-0.4809,0.3511,-0.5115,0,0,0
-0.2737,0.1011,0.9858,-1.3511,-0.3206,-0.7252,0,0,0
-0.2786,0.1052,0.988,-1.9008,-0.6183,-0.8702,0,0,0
-0.2744,0.0972,0.9795,-2.3969,-1.4427,-2.2137,0,0,0
-0.2625,0.0994,0.9807,-1.9695,-1.5649,-1.626,0,0,0
-0.2605,0.0891,0.9741,-2.0458,-1.0611,-1.313,0,0,0
-0.2646,0.0913,0.9744,-1.4275,-0.5802,-0.6947,0,0,0
-0.271,0.0928,0.9844,-1.1527,-1.3206,-0.1221,0,0,0
-0.2622,0.0881,0.9919,-0.7176,-1.2214,-0.9008,0,0,0
-0.2546,0.085,0.9932,-0.229,-0.6489,-0.6565,0,0,0
-0.2537,0.0903,0.9934,-0.5344,-0.7099,0.3588,0,0,0
-0.2532,0.0864,1.0017,-0.8779,0.0458,0.5954,0,0,0
-0.261,0.0935,0.9951,-1.6336,0.9389,1.0229,0,0,0
-0.2688,0.1003,0.9888,-1.3969,0.8244,0.9695,0,0,0
-0.2722,0.1008,0.9846,-1.1679,-0.0687,0.855,0,0,0
-0.2649,0.0964,0.9797,-1.1603,-0.1527,0.7481,0,0,0
-0.2695,0.0955,0.9722,-0.7252,0.3969,0.8779,0,0,0
-0.2673,0.0972,0.9746,-0.0153,0.2443,1.1374,0,0,0
-0.2717,0.1023,0.9839,-0.4275,0.2214,0.9924,0,0,0
-0.2742,0.103,0.9888,-0.4122,0.4351,0.1985,0,0,0
-0.2764,0.1057,0.9966,-1.0687,0.1679,-0.2061,0,0,0
-0.2766,0.1094,0.9907,-2.4427,-1.3359,0.1679,0,0,0
-0.2798,0.1045,0.9846,-3.1374,-1.6718,0.1985,0,0,0
-0.2761,0.1045,0.9705,-2.5191,-1.8168,-0.5649,0,0,0
-0.2725,0.0928,0.9707,-1.0687,-1.7863,-1.7023,0,0,0
-0.2576,0.0876,0.9734,0.0305,-1.8702,-2.0458,0,0,0
-0.2319,0.0789,1.0,1.0076,0.1832,-0.3206,0,0,0
-0.2393,0.0833,1.0027,1.2061,1.5038,1.542,0,0,0
-0.2544,0.0898,1.0059,0.9389,1.8855,3.0076,0,0,0
-0.2761,0.1028,1.0037,0.229,2.3588,3.084,0,0,0
-0.2949,0.1191,1.0007,-1.0611,1.6412,2.0458,0,0,0
-0.2905,0.1133,0.9893,-1.9771,-0.1221,1.1756,0,0,0
-0.2737,0.1069,0.9746,-2.1679,-0.4427,0.8092,0,0,0
-0.271,0.1086,0.9702,-1.542,0.0611,0.7939,0,0,0
-0.281,0.1157,0.9785,-0.8168,0.6107,0.1069,0,0,0
-0.2825,0.1182,0.981,-0.8855,0.2977,-0.3969,0,0,0
-0.2832,0.124,0.9856,-1.7481,-0.2366,-1.0534,0,0,0
-0.2788,0.1162,0.9797,-2.1985,-1.2519,-1.8321,0,0,0
-0.2708,0.1064,0.9822,-2.2443,-1.0992,-2.6336,0,0,0
-0.2712,0.1111,0.9893,-2.687,-1.3206,-2.855,0,0,0
-0.2764,0.1072,0.9795,-3.4198,-2.5802,-3.3817,0,0,0
-0.2551,0.0916,0.9736,-3.0305,-3.229,-3.3511,0,0,0
-0.2371,0.0896,0.9929,-1.7939,-1.8321,-2.7328,0,0,0
-0.2424,0.0876,0.9873,-1.4809,0.2748,-1.4275,0,0,0
-0.252,0.0974,0.9912,-1.2672,0.3282,-0.1832,0,0,0
-0.2646,0.1008,0.9812,-1.7557,-0.4122,0.5649,0,0,0
-0.2761,0.1042,0.9871,-2.4046,-0.8626,0.5878,0,0,0
-0.2771,0.1023,0.9792,-2.3817,-0.5191,0.1679,0,0,0
-0.2852,0.1069,0.9722,-1.9847,-0.7481,-0.5496,0,0,0
-0.2861,0.1064,0.9783,-1.8626,-1.4962,-1.1756,0,0,0
-0.2786,0.1013,0.9827,-1.9618,-1.9466,-2.229,0,0,0
-0.2703,0.0999,0.9822,-2.0611,-0.9618,-1.9237,0,0,0
-0.2866,0.1023,0.9753,-2.2137,-1.7252,-1.687,0,0,0
-0.2805,0.0991,0.9937,-2.0305,-2.3359,-2.6489,0,0,0
-0.272,0.1003,1.0,-2.9389,-2.1985,-2.9924,0,0,0
-0.2603,0.0886,0.9956,-3.8473,-2.2366,-2.8015,0,0,0
-0.2493,0.0828,0.9888,-3.7023,-1.9008,-1.5725,0,0,0
-0.2505,0.0811,0.9873,-3.1908,-0.9924,-0.9313,0,0,0
-0.2502,0.0847,0.9949,-2.3206,0.1908,-0.1145,0,0,0
-0.2625,0.0916,0.9832,-2.3435,0.2824,-0.2137,0,0,0
-0.2695,0.0991,0.9885,-2.6565,-0.1679,-0.3435,0,0,0
-0.2625,0.095,0.9856,-2.6794,-0.3435,-0.4046,0,0,0
-0.2615,0.0945,0.9871,-2.9008,-0.4122,-0.5573,0,0,0
-0.26,0.1008,0.9878,-2.8626,-0.0763,-0.0916,0,0,0
-0.2732,0.1035,0.9773,-2.8702,-0.0229,-0.4046,0,0,0
-0.2734,0.1035,0.9827,-2.7099,-0.7252,-1.0458,0,0,0
-0.2593,0.1013,0.9861,-2.7099,-0.4656,-1.1527,0,0,0
-0.2651,0.1096,0.9922,-2.7099,-0.1832,-0.2061,0,0,0
-0.2727,0.1086,0.9858,-2.9618,-0.542,-0.5344,0,0,0
-0.2786,0.1094,0.9819,-2.9618,-0.9542,-0.6412,0,0,0
-0.2773,0.1045,0.9883,-2.9466,-0.9237,-1.9237,0,0,0
