ax,ay,az,gx,gy,gz,left_click,right_click
0.1067,-0.0371,1.0156,-1.0,-0.2443,-2.5191,1,0,0
0.1096,-0.0356,1.0222,-0.6107,0.2366,-2.9084,1,0,0
0.1108,-0.0344,1.0281,-0.9237,-0.3359,-3.1908,1,0,0
0.1201,-0.0376,1.0413,-2.0534,-0.8702,-2.1527,1,0,0
0.123,-0.05,1.0369,-2.8092,-1.2519,-1.8702,1,0,0
0.1238,-0.0542,1.031,-3.6107,-1.8321,-0.8626,1,0,0
0.1306,-0.0645,1.0247,-3.6718,-2.0534,-0.542,1,0,0
0.1384,-0.0664,1.0156,-2.458,-0.855,-0.1298,1,0,0
0.1228,-0.0566,1.0183,-0.8397,-0.2366,0.5649,1,0,0
0.1189,-0.0508,1.0283,-0.6718,-0.1679,0.0763,1,0,0
0.1174,-0.0393,1.0215,-0.8702,0.855,-0.4656,1,0,0
0.1196,-0.0415,1.0276,-1.5267,0.7481,-0.6412,1,0,0
0.1199,-0.0376,1.0251,-1.7405,-0.0534,0.1374,1,0,0
0.123,-0.0371,1.0256,-1.5496,-0.4122,0.6489,1,0,0
0.1184,-0.0325,1.0293,-2.4656,-0.3969,0.8931,1,0,0
0.103,-0.0337,1.0134,-3.374,-1.6183,1.084,1,0,0
0.0996,-0.0403,1.0002,-3.6031,-2.4733,0.1145,1,0,0
0.1089,-0.0449,0.9939,-2.3893,-2.229,-0.4351,1,0,0
0.1121,-0.0518,0.9912,-0.7176,-1.3053,-0.9847,1,0,0
0.1121,-0.0471,1.0005,0.5038,-1.1527,-1.0,1,0,0
0.1216,-0.0505,1.0066,1.5496,-1.5191,-1.0611,1,0,0
0.1379,-0.0508,1.0378,1.6412,-1.7176,-0.8931,1,0,0
0.1338,-0.0459,1.0571,1.2137,-0.9084,-0.0916,1,0,0
0.1316,-0.0344,1.063,0.4504,-0.9084,0.4809,1,0,0
0.124,-0.0308,1.0574,-0.7176,-1.4275,1.4885,1,0,0
0.1167,-0.0266,1.051,-1.6031,-1.0229,1.687,1,0,0
0.1133,-0.022,1.0454,-1.5649,-0.6794,0.542,0,0,0
0.1133,-0.0217,1.031,-1.458,0.2061,0.626,0,0,0
0.1118,-0.0317,1.0325,-1.8244,0.3893,0.4656,0,0,0
0.115,-0.0364,1.0234,-1.7939,0.2748,0.2519,0,0,0
0.1204,-0.0444,1.0073,-1.4809,0.1985,0.4122,0,0,0
0.116,-0.0459,1.0117,-0.9847,0.5496,1.2137,0,0,0
0.1045,-0.0403,1.0024,-0.855,0.3969,1.5649,0,0,0
0.0959,-0.0359,0.9966,-0.5725,-0.5038,1.0305,0,0,0
0.1033,-0.0393,0.998,-0.5191,-0.8092,0.6641,0,0,0
0.1104,-0.0469,1.0029,-0.1527,-0.4122,0.6489,0,0,0
0.1204,-0.0476,1.0068,0.458,-0.0458,0.1145,0,0,0
0.1125,-0.0405,1.0154,0.6641,0.2366,0.313,0,0,0
0.1143,-0.0369,1.0142,0.4198,-1.0992,-0.1985,0,0,0
0.1182,-0.0381,1.0134,0.2672,-1.5649,-0.8779,0,0,0
0.1091,-0.0408,1.0125,0.1374,-2.855,-0.2748,0,0,0
0.1265,-0.041,1.0273,0.0687,-2.2748,-1.4504,0,0,0
0.1431,-0.0452,1.0396,-0.1908,-1.4046,-1.3893,0,0,0
0.1375,-0.0425,1.0417,-0.8779,-1.1069,1.084,0,0,0
0.1367,-0.0383,1.0432,-1.0153,-1.7405,2.229,0,0,0
0.1384,-0.0283,1.0535,-1.5954,-1.458,4.084,0,0,0
0.1248,-0.0164,1.063,-3.0763,0.374,5.4198,0,0,0
0.1201,-0.0103,1.0605,-3.7939,3.2824,6.5115,0,0,0
0.1431,-0.0247,1.0657,-4.8779,9.2519,9.229,0,0,0
0.1157,-0.0342,1.0447,-2.6183,13.229,11.0229,0,0,0
0.1377,-0.0203,1.0447,0.313,14.7939,7.6107,0,0,0
0.1199,-0.01,1.0388,0.4351,20.7481,7.7099,0,0,0
0.1746,0.0151,1.0483,-0.1985,24.6794,6.0763,0,0,0
0.2219,-0.0698,1.0933,-0.4046,42.4351,10.5954,0,0,0
0.1304,-0.0278,1.042,0.8779,48.8855,11.9313,0,0,0
0.0791,-0.0364,1.0332,2.9084,46.687,13.1679,0,0,0
0.0076,0.0156,1.0337,1.9542,52.4122,12.8168,0,0,0
-0.064,0.0076,1.0022,-0.7328,40.4504,8.855,0,0,0
-0.0869,0.0134,1.0081,-1.6336,27.0534,5.1298,0,0,0
-0.0361,0.0088,1.0286,-6.1603,18.5954,-1.2595,0,0,0
0.0339,-0.0427,1.0376,-8.9389,18.4198,-6.1221,0,0,0
0.0652,-0.0615,1.0198,-6.2366,20.2366,-7.4198,0,0,0
0.0781,-0.0728,1.0249,-5.145,19.8015,-6.6336,0,0,0
0.0444,-0.0564,1.0098,-4.8779,13.5267,-3.7863,0,0,0
0.0288,-0.0342,1.0161,-7.4733,5.5954,-1.0076,0,0,0
0.0454,-0.0425,1.0195,-10.8244,4.3282,1.2672,0,0,0
0.0454,-0.0835,1.0037,-8.7405,8.4351,5.3817,0,0,0
0.0002,-0.0581,0.968,-3.7176,11.1908,4.6412,0,0,0
-0.0339,-0.0273,0.9768,-1.2061,11.2901,1.626,0,0,0
-0.0142,-0.0273,1.0051,-1.3969,12.1679,-3.0153,0,0,0
-0.0173,-0.0356,0.9988,-1.4733,12.0458,-5.9771,0,0,0
-0.0034,-0.0427,1.0068,-0.5191,7.9008,-7.4962,0,0,0
0.0193,-0.0413,1.0298,-1.2137,3.0458,-5.0916,0,0,0
0.0168,-0.0364,1.0427,-2.8855,-1.374,-1.2672,1,0,0
0.0217,-0.0315,1.0579,-5.8321,-4.3893,1.0,1,0,0
0.02,-0.0376,1.0449,-8.3435,-6.6641,1.9542,1,0,0
0.0217,-0.0396,1.0164,-8.5496,-9.3435,2.4504,1,0,0
0.0188,-0.0422,1.0129,-7.6641,-10.1603,4.5802,1,0,0
0.0203,-0.0391,1.0071,-6.3893,-10.7328,4.1985,1,0,0
0.0281,-0.0398,1.0281,-5.4198,-9.145,3.3893,1,0,0
0.0425,-0.0398,1.0488,-4.145,-4.8626,1.8626,1,0,0
0.0417,-0.0442,1.0488,-3.1908,-0.3053,0.2901,1,0,0
0.0232,-0.0359,1.0295,-2.8855,0.0229,0.2519,1,0,0
0.0166,-0.0339,1.0344,-3.7481,-3.084,1.4122,1,0,0
0.0161,-0.0415,1.0386,-4.5573,-4.6412,0.9695,1,0,0
0.0181,-0.051,1.0291,-4.3893,-4.9771,1.0382,1,0,0
0.0181,-0.0498,1.0105,-3.0229,-4.6947,0.0534,1,0,0
0.0325,-0.054,1.0122,-1.4351,-4.2366,-1.0763,1,0,0
0.0483,-0.0564,1.033,0.3053,-1.9008,0.3588,1,0,0
0.022,-0.0391,1.0398,0.7786,-1.1145,1.855,1,0,0
0.0125,-0.0295,1.0518,-0.4275,-2.229,1.0305,1,0,0
0.0059,-0.0276,1.054,-3.084,-3.7481,-0.7405,1,0,0
0.0439,-0.0439,1.0598,-4.7786,-3.8244,-0.9542,1,0,0
0.0464,-0.0581,1.0325,-4.2519,-1.6794,-1.8168,1,0,0
0.0386,-0.0532,1.0127,-3.1145,-1.8779,-1.6412,1,0,0
0.0405,-0.0605,1.011,-2.1298,-1.2901,-1.6183,1,0,0
0.032,-0.0525,1.0251,-1.6718,-1.4733,-1.8931,1,0,0
0.0327,-0.0479,1.022,-2.1832,-1.2595,-1.8168,1,0,0
0.0264,-0.0454,1.0198,-2.2748,-2.458,-2.0153,1,0,0
0.0276,-0.0486,1.0291,-2.5115,-2.3359,-1.4733,1,0,0
0.0193,-0.0391,1.0217,-2.771,-2.6336,-2.0,1,0,0
0.0205,-0.031,1.0132,-3.313,-4.313,-2.6183,1,0,0
0.0337,-0.0547,1.0186,-3.3359,-3.9313,-2.1603,1,0,0
0.0374,-0.0503,1.0171,-2.0458,-2.4733,-3.3664,1,0,0
0.0435,-0.0598,1.0247,-2.1221,-0.9008,-3.0,1,0,0
0.0479,-0.0571,1.0212,-0.0305,-0.1679,-3.0687,1,0,0
0.0432,-0.0547,1.0334,0.0763,0.0763,-2.7557,1,0,0
0.0437,-0.0549,1.0425,-0.7023,-1.2214,-1.0763,1,0,0
0.0344,-0.0476,1.0527,-2.7863,-2.6947,-1.5267,1,0,0
0.0398,-0.0508,1.0415,-4.6641,-3.4046,-1.9542,1,0,0
0.0454,-0.0613,1.0247,-4.8855,-4.9771,-2.2443,1,0,0
0.0508,-0.0654,1.0259,-3.855,-3.9237,-0.8321,1,0,0
0.0413,-0.0647,1.0244,-2.4427,-0.7481,-0.0916,1,0,0
0.0344,-0.0564,1.0178,-0.8779,0.7023,-1.7252,1,0,0
0.0261,-0.0503,1.0239,-0.374,0.6107,-2.5115,1,0,0
0.0393,-0.054,1.0364,-1.3893,-0.3282,-2.5496,1,0,0
0.0562,-0.0603,1.0403,-1.5649,-0.1679,-2.313,1,0,0
0.0662,-0.0627,1.0398,-2.0687,1.1221,-1.4656,1,0,0
0.0559,-0.0632,1.0278,-2.8092,1.3359,-0.0611,1,0,0
0.0422,-0.0591,1.0164,-3.1374,0.3053,1.0687,1,0,0
0.0483,-0.0605,1.0181,-3.5344,-0.3511,3.6489,1,0,0
0.0571,-0.0601,1.03,-3.6183,1.4046,6.1221,1,0,0
0.0852,-0.0776,1.0405,-3.687,3.3893,8.2748,1,0,0
0.0754,-0.0808,1.0522,-2.8931,7.1069,12.5115,1,0,0
0.0574,-0.0498,1.0234,-3.4885,5.5115,17.8397,1,0,0
0.0322,-0.0793,1.0046,-4.1756,-0.0687,22.7634,1,0,0
0.1162,-0.1289,1.0154,-1.9771,-0.3969,32.0458,1,0,0
0.0925,-0.1011,1.0051,3.6336,0.4351,37.916,1,0,0
0.0623,-0.0798,1.0132,5.458,4.7405,37.3435,1,0,0
0.0281,-0.0469,1.0249,5.6794,6.5649,35.4733,1,0,0
0.0217,-0.0129,1.0381,3.1221,6.9924,37.1145,1,0,0
0.0444,-0.0535,1.0662,-2.5115,6.4275,40.9389,1,0,0
0.041,-0.0466,1.0481,-3.687,0.1069,44.7176,1,0,0
0.071,-0.0549,1.0791,-7.2977,-0.7634,45.9924,1,0,0
0.0071,-0.054,1.0444,-8.5878,0.9008,43.5496,1,0,0
0.0449,-0.0591,1.0203,-8.3282,3.2137,44.145,1,0,0
0.0146,-0.0664,1.011,-4.1679,5.6412,41.7328,1,0,0
0.0005,-0.0681,1.0144,-3.5038,4.5725,40.3969,1,0,0
-0.0137,-0.0574,1.0012,-1.2061,0.2748,37.7786,1,0,0
-0.0186,-0.0366,1.0222,-0.3817,-1.3893,33.6031,1,0,0
0.0186,-0.0042,1.0442,-2.2214,0.626,30.2061,1,0,0
0.0093,-0.0061,1.0706,-7.5878,4.0611,31.7099,1,0,0
0.0588,-0.0396,1.0693,-12.1527,6.5573,29.7176,1,0,0
0.0718,-0.1011,1.0674,-12.8702,11.6794,31.2977,1,0,0
0.043,-0.0762,1.0276,-11.9695,11.9389,29.5649,1,0,0
0.0066,-0.0876,1.001,-11.0458,9.0687,30.1603,1,0,0
-0.0334,-0.0298,0.9958,-12.5115,1.8702,31.1985,1,0,0
-0.0481,-0.0518,0.9897,-14.2824,-4.626,31.313,1,0,0
-0.022,-0.0562,1.01,-14.1069,-6.5191,28.542,1,0,0
-0.0452,-0.0686,1.0093,-12.5038,-4.9466,24.5649,1,0,0
-0.0195,-0.0334,1.0144,-12.1908,-4.1298,20.3282,1,0,0
-0.0383,-0.0837,1.0183,-11.5038,-2.771,19.8015,1,0,0
-0.0071,-0.0757,1.0093,-8.229,-2.6641,14.4809,1,0,0
0.0056,-0.0967,1.0293,-4.9542,0.4733,11.9924,1,0,0
-0.01,-0.085,1.0161,0.0076,3.5115,6.8321,1,0,0
-0.0276,-0.072,1.0081,2.5267,3.5954,0.916,1,0,0
-0.0149,-0.0498,1.0059,3.9466,0.855,-3.4046,1,0,0
0.0073,-0.0679,1.0315,0.8779,1.2137,0.6718,1,0,0
-0.0156,-0.0493,1.0042,0.0763,-2.6489,-0.6031,1,0,0
0.0088,-0.0808,1.0332,-1.5038,-2.6794,0.1679,1,0,0
0.0281,-0.0691,1.0203,-1.0916,0.3435,1.6489,1,0,0
0.0322,-0.1135,1.0298,2.4427,4.2061,5.4656,1,0,0
0.0186,-0.0952,1.0042,6.9618,6.7786,4.1374,1,0,0
0.0,-0.0791,1.0176,8.5267,7.4122,4.1069,1,0,0
-0.0225,-0.0715,1.0276,8.8092,6.4046,2.6412,1,0,0
-0.0417,-0.0583,1.0422,8.4046,2.2366,-1.7176,1,0,0
-0.0425,-0.0552,1.0554,6.626,-2.8321,-6.8168,1,0,0
-0.0239,-0.0334,1.0542,4.3359,-6.6031,-10.1832,1,0,0
-0.0452,-0.0425,1.0264,0.9389,-8.8473,-10.771,1,0,0
-0.0168,-0.0525,1.0195,-0.6794,-10.458,-13.6336,1,0,0
0.0251,-0.0459,1.0305,-3.4504,-8.6183,-12.0076,1,0,0
-0.0015,-0.0728,1.0032,-2.8015,-9.2061,-9.771,1,0,0
0.0166,-0.0676,0.9971,-1.8244,-10.8168,-10.1298,1,0,0
0.002,-0.0784,0.9792,-0.2901,-15.3511,-9.916,1,0,0
0.0078,-0.0564,0.9612,1.2366,-27.6412,-10.6107,1,0,0
0.0071,-0.0803,0.9851,2.7252,-37.0076,-6.5344,1,0,0
0.0164,-0.0588,1.0178,1.4198,-43.0611,-7.542,1,0,0
0.0261,-0.0723,1.0437,0.1603,-39.5725,-8.8244,1,0,0
0.0327,-0.0332,1.042,-0.8702,-34.4122,-12.313,1,0,0
0.0227,-0.0598,1.0342,-0.7405,-30.9618,-12.6031,1,0,0
0.0005,-0.0562,1.0049,1.2901,-34.8321,-17.2748,1,0,0
0.0515,-0.0518,1.0146,4.3282,-36.1603,-20.8092,1,0,0
0.0845,-0.0596,1.0371,2.7786,-32.5267,-15.542,1,0,0
0.071,-0.0701,1.0234,4.4809,-32.2824,-16.4122,1,0,0
0.1118,-0.0872,1.03,5.7099,-30.8473,-18.7023,1,0,0
0.1506,-0.031,1.0437,4.3588,-28.9695,-17.0305,1,0,0
0.1438,-0.0718,1.0791,0.4885,-26.5573,-7.3206,1,0,0
0.1101,-0.0469,1.0583,0.2519,-22.1145,-7.3817,1,0,0
0.1023,-0.0532,1.0618,-0.2595,-14.458,-10.2214,1,0,0
0.0906,-0.0374,1.0454,0.5954,-7.3969,-15.1374,1,0,0
0.0825,-0.0305,1.0347,0.7023,-1.3435,-16.2443,1,0,0
0.0454,-0.0413,0.9954,2.2137,-1.0458,-20.0916,1,0,0
0.0469,-0.0457,0.9888,4.4351,-6.2977,-25.1908,1,0,0
0.0701,-0.0471,1.0095,5.374,-11.3969,-30.145,1,0,0
0.1658,-0.0154,1.062,1.1756,-8.9084,-26.626,1,0,0
0.1487,-0.0674,1.0393,-1.7023,-8.3817,-18.1374,1,0,0
0.1577,-0.0752,0.9946,-0.4809,-11.7481,-16.7176,1,0,0
0.1738,-0.0811,1.0168,0.7328,-13.1908,-15.5191,1,0,0
0.1868,-0.0825,1.0081,-0.9847,-12.3053,-10.3053,1,0,0
0.1765,-0.0898,1.0166,-0.374,-11.8092,-6.8855,1,0,0
0.1511,-0.073,1.0149,2.3435,-9.0534,-7.0763,1,0,0
0.1094,-0.0547,0.9966,4.2519,-10.4504,-10.2901,1,0,0
0.1301,-0.031,1.0222,2.9847,-10.8702,-8.3511,1,0,0
0.1245,-0.0544,1.0364,2.458,-10.7023,-5.626,1,0,0
0.124,-0.042,1.0349,3.2137,-10.229,-8.5115,1,0,0
0.1392,-0.0073,1.0369,3.3817,-9.2061,-10.2137,1,0,0
0.1443,-0.0234,1.0623,-0.6718,-8.5802,-4.5496,1,0,0
0.1221,-0.0278,1.0291,-4.1756,-11.2824,-2.1221,1,0,0
0.145,-0.0476,1.0239,-5.3435,-13.5573,-3.2519,1,0,0
0.1538,-0.0544,1.0139,-4.771,-12.5115,-3.8702,1,0,0
0.1506,-0.0605,1.0103,-2.7405,-10.4885,-5.3588,1,0,0
0.123,-0.0359,0.9746,-1.771,-11.4656,-10.3282,1,0,0
0.1128,-0.0461,0.9934,0.0611,-16.5954,-16.8626,1,0,0
0.1248,-0.0364,1.0286,2.6718,-15.916,-22.6565,1,0,0
0.1309,-0.0356,1.0259,5.0916,-12.2519,-30.0611,1,0,0
0.0872,-0.0217,0.9919,7.6183,-10.3511,-37.7863,1,0,0
0.1255,-0.0164,1.0142,8.1374,-12.3588,-42.4198,1,0,0
0.1694,-0.0156,1.0298,8.145,-13.1374,-40.4962,1,0,0
0.1975,-0.0198,1.0425,9.1832,-11.3435,-35.8855,1,0,0
0.2234,-0.0039,1.0601,9.229,-6.0382,-31.8855,1,0,0
0.1982,-0.0039,1.0645,6.7939,0.7405,-30.771,1,0,0
0.1809,-0.0066,1.0239,6.1985,1.0687,-34.0611,1,0,0
0.2153,-0.0371,1.0166,7.5725,3.4504,-37.7634,1,0,0
0.2007,-0.0266,1.0115,10.7481,5.5191,-40.6718,1,0,0
0.179,-0.0093,1.0178,12.5267,5.9771,-41.1374,1,0,0
0.1482,0.0073,1.0034,14.5191,1.8321,-38.7634,1,0,0
0.1301,0.0283,1.0154,13.3435,-3.374,-35.0763,1,0,0
0.106,0.0239,1.0244,8.7405,-7.8473,-33.7252,1,0,0
0.1428,0.0139,1.0073,4.6794,-14.7863,-31.9847,1,0,0
0.1743,-0.001,1.0181,3.7939,-17.0305,-26.0763,1,0,0
0.1704,0.0159,1.0095,0.8779,-18.7405,-21.2672,1,0,0
0.1636,0.0076,0.99,0.5725,-21.4198,-18.5114,1,0,0
0.1877,-0.0054,0.9824,1.8168,-23.0763,-15.229,1,0,0
0.1833,0.0017,0.9883,3.1069,-23.9313,-12.4427,1,0,0
0.1848,-0.0044,0.9822,4.0076,-25.8244,-11.0763,1,0,0
0.2185,-0.0039,1.0042,4.0458,-25.7939,-9.3893,1,0,0
0.2371,-0.0032,1.0234,5.2977,-23.7023,-7.4122,1,0,0
0.2256,0.0105,1.0376,5.5649,-19.5114,-6.3969,1,0,0
0.2095,0.0264,1.0269,5.3817,-16.2137,-5.8931,1,0,0
0.2009,0.0303,1.0115,4.9542,-16.4427,-7.5954,1,0,0
0.2104,0.0217,0.9954,5.1298,-18.626,-8.0153,1,0,0
0.2256,0.0103,0.9973,6.1298,-19.7252,-6.2519,1,0,0
0.2336,0.0203,1.0298,6.9389,-18.145,-4.229,1,0,0
0.2227,0.033,1.0376,6.7481,-13.5725,-3.2137,1,0,0
0.2119,0.042,1.0198,6.0382,-9.8779,-3.9237,1,0,0
0.2085,0.0459,1.0115,4.5573,-8.458,-5.4275,1,0,0
0.2061,0.042,0.9937,3.9847,-10.0305,-6.8168,1,0,0
0.2205,0.0278,0.9873,4.6183,-12.1679,-6.6183,1,0,0
0.2388,0.0278,1.0112,5.3282,-11.2824,-4.4198,1,0,0
0.2312,0.0479,1.0129,4.626,-10.1832,-5.4885,1,0,0
0.2456,0.0403,1.0212,4.6794,-7.1298,-7.9237,1,0,0
0.2705,0.0369,1.0317,4.2214,-0.0382,-9.7863,1,0,0
0.2588,0.033,1.0063,5.0382,7.7481,-13.8397,1,0,0
0.2463,0.0171,0.9858,7.5878,14.7023,-16.9313,1,0,0
0.21,0.0281,0.9736,11.5649,17.1908,-16.4504,1,0,0
0.2,0.0454,0.9949,14.3511,16.3664,-15.7252,1,0,0
0.1619,0.0752,1.0076,14.9466,13.4962,-16.5038,1,0,0
0.1438,0.0903,1.001,14.1603,8.7252,-17.145,1,0,0
0.167,0.092,1.0139,12.8931,6.6947,-21.4962,1,0,0
0.2012,0.0876,1.0347,12.3664,13.4122,-30.9389,1,0,0
0.1812,0.0989,1.0066,10.1679,19.9771,-41.7328,1,0,0
0.1904,0.073,0.9736,11.8092,20.1832,-45.6489,1,0,0
0.2024,0.0518,0.9875,15.7405,16.3206,-44.2595,1,0,0
0.2187,0.0542,1.0012,18.3359,13.229,-40.2901,1,0,0
0.1963,0.0811,0.9905,19.8092,8.8092,-39.7023,1,0,0
0.2046,0.0713,0.9978,23.8626,3.3893,-36.0534,1,0,0
0.1929,0.1052,1.0178,23.8244,-1.145,-31.0611,1,0,0
0.1973,0.1316,1.022,22.0305,-6.7405,-28.6794,1,0,0
0.2173,0.1331,1.0349,18.6641,-10.8015,-27.6565,1,0,0
0.2141,0.1409,1.0269,10.6183,-13.4504,-27.145,1,0,0
0.2449,0.1274,1.021,4.6336,-17.0305,-24.2824,1,0,0
0.2737,0.0955,1.0203,1.4656,-16.1298,-20.6794,1,0,0
0.2307,0.104,0.9827,0.7405,-17.7176,-15.0229,1,0,0
0.2244,0.1006,0.9749,2.9008,-18.0305,-12.4351,1,0,0
0.1946,0.116,0.968,5.5038,-19.6947,-11.1679,1,0,0
0.1628,0.1428,0.9685,6.9389,-23.8702,-11.5725,1,0,0
0.1704,0.1382,0.9822,7.8015,-24.2061,-12.8092,1,0,0
0.166,0.1826,0.9893,6.8626,-21.9771,-20.5649,1,0,0
0.1965,0.1548,1.0081,4.2061,-19.9389,-26.084,1,0,0
0.2407,0.1228,1.0305,3.3053,-15.3664,-24.0153,1,0,0
0.2073,0.1333,1.0046,2.4504,-14.1145,-19.542,1,0,0
0.1938,0.1516,1.001,2.9237,-18.2824,-16.542,1,0,0
0.2249,0.1646,1.0081,1.0382,-24.626,-13.4351,1,0,0
0.2378,0.1802,1.022,-0.6718,-26.3664,-12.7863,1,0,0
0.2207,0.1702,0.9856,-1.0153,-29.3206,-14.8931,1,0,0
0.2351,0.1455,0.9778,1.084,-31.7939,-17.0076,1,0,0
0.3152,0.1113,0.9841,2.7939,-23.0229,-19.229,1,0,0
0.2998,0.1047,0.9475,8.5191,-12.1832,-23.0305,1,0,0
0.2368,0.1526,0.98,14.7252,-17.9771,-27.916,1,0,0
0.2676,0.1348,0.999,13.8626,-7.3969,-30.2901,1,0,0
0.2751,0.1519,1.0325,17.2137,-2.0534,-26.8626,1,0,0
0.238,0.1631,1.0291,20.4885,2.1908,-24.229,1,0,0
0.2263,0.1887,1.0459,18.9695,3.916,-23.0611,1,0,0
0.1851,0.2166,1.011,10.855,2.313,-20.8321,1,0,0
0.1926,0.2212,1.0315,0.9924,-6.9618,-20.4733,1,0,0
0.2764,0.2256,1.0161,-8.5496,-16.5802,-22.5191,1,0,0
0.3208,0.1685,1.0132,-14.9084,-12.687,-22.2443,1,0,0
0.3354,0.1365,0.9719,-14.6336,-5.6718,-20.5344,1,0,0
0.3262,0.1187,0.9382,-9.0992,-2.6947,-17.7405,1,0,0
0.3179,0.1079,0.9592,-2.8855,1.2214,-13.9924,1,0,0
0.2761,0.1282,0.9807,0.374,5.2977,-8.145,1,0,0
0.2178,0.1716,0.9761,0.229,6.0687,-6.7099,1,0,0
0.2083,0.1772,0.9673,-0.6718,4.4275,-9.5802,1,0,0
0.2434,0.1626,0.9727,-0.1527,4.1985,-10.4427,1,0,0
0.27,0.1611,0.9712,0.4504,5.0,-9.0382,1,0,0
0.2664,0.1614,0.98,1.5954,6.2366,-8.313,1,0,0
0.2424,0.1741,0.9746,2.3359,4.5878,-8.0382,1,0,0
0.2803,0.1716,0.9875,1.4122,2.3435,-8.8092,1,0,0
0.2893,0.1653,0.9861,-0.2977,6.9924,-11.1832,1,0,0
0.2776,0.146,0.9841,-1.8702,11.0229,-9.5878,1,0,0
0.2605,0.1633,0.9729,-1.7481,11.3969,-7.458,1,0,0
0.2471,0.1667,0.9673,-0.6489,6.9771,-5.145,1,0,0
0.2646,0.1709,0.9949,0.2977,4.2824,-2.0,1,0,0
0.2561,0.1831,1.0012,-0.3817,3.9618,0.9771,1,0,0
0.2402,0.1885,0.999,-2.0534,4.0382,1.6183,1,0,0
0.2212,0.1887,0.9929,-3.2519,2.771,1.9008,1,0,0
0.2271,0.1851,0.9973,-2.3511,1.0916,2.7405,1,0,0
0.2327,0.1963,0.9995,-3.6947,-0.2901,3.4733,1,0,0
0.2422,0.1887,0.9873,-4.5267,-1.5725,2.8779,1,0,0
0.2493,0.1692,0.978,-4.8015,-0.0382,2.4962,1,0,0
0.2424,0.1633,0.9587,-3.3893,-0.0687,2.9084,1,0,0
0.2393,0.1589,0.9687,-1.1679,1.0229,3.2672,1,0,0
0.2334,0.1731,0.9751,-0.4351,2.145,2.6718,1,0,0
0.2261,0.1714,0.98,-0.3893,2.0763,2.0229,1,0,0
0.23,0.1812,0.9844,0.0,1.5878,2.8092,1,0,0
0.2266,0.1824,0.9934,0.2595,-0.0305,4.4885,1,0,0
0.2168,0.2029,1.0137,-1.6794,-1.1298,5.0916,1,0,0
0.2124,0.1953,1.0193,-5.1985,-0.3969,3.3053,1,0,0
0.2209,0.1919,1.0095,-8.4351,3.2366,0.5038,1,0,0
0.2444,0.1653,1.0007,-9.3359,9.0534,-1.0,1,0,0
0.2813,0.1589,1.0142,-8.7328,17.0611,-1.458,1,0,0
0.2722,0.1519,1.0042,-7.6565,23.4962,1.3282,1,0,0
0.2539,0.1604,1.009,-7.8931,24.3435,5.6947,1,0,0
0.2556,0.1614,1.0146,-7.771,27.4198,9.542,1,0,0
0.2439,0.1653,1.033,-10.1145,30.145,13.6565,1,0,0
0.2253,0.1621,1.0405,-13.458,32.7023,18.0076,1,0,0
0.1973,0.1594,1.0491,-17.2137,34.7176,22.3435,1,0,0
0.1753,0.1777,1.0332,-19.6489,36.5038,23.7099,1,0,0
0.156,0.1997,1.0122,-21.5649,39.4427,19.2672,1,0,0
0.1465,0.186,0.9966,-22.7786,42.4656,10.6412,1,0,0
0.1423,0.1755,0.981,-23.8015,44.8092,2.2366,1,0,0
0.1436,0.1492,0.9592,-22.313,42.3359,-3.6565,1,0,0
0.1455,0.1345,0.9604,-20.3664,38.2977,-5.855,1,0,0
0.1648,0.1177,0.9622,-17.9771,30.1756,-5.2672,1,0,0
0.2043,0.114,0.9988,-14.3664,25.6947,-2.1679,1,0,0
0.1899,0.1172,1.0115,-12.6031,26.4351,0.3969,1,0,0
0.1416,0.1189,1.0044,-11.3817,24.2824,2.3969,1,0,0
0.1399,0.1299,1.0215,-11.0153,24.6183,3.2519,1,0,0
0.1165,0.134,1.0117,-11.313,28.5114,0.1832,1,0,0
0.085,0.1311,0.9978,-11.1908,28.3893,-4.0534,1,0,0
0.0913,0.116,0.9883,-9.8779,25.4275,-5.9924,1,0,0
0.1106,0.1096,0.9915,-7.5878,22.9313,-5.313,1,0,0
0.1047,0.1238,0.9946,-5.2214,20.313,-4.1756,1,0,0
0.1028,0.1296,1.011,-5.0229,16.1832,-5.1298,1,0,0
0.1062,0.1201,1.0208,-5.6107,14.4656,-5.1298,1,0,0
0.1118,0.1116,1.0098,-6.1221,12.4885,-3.4198,1,0,0
0.1094,0.1021,0.999,-5.6641,10.4122,-2.1374,1,0,0
0.1179,0.0984,1.0107,-3.145,9.7405,-0.4504,1,0,0
0.1021,0.1218,1.0496,-2.8702,17.2977,-0.7405,1,0,0
0.0515,0.1555,1.0669,-4.6641,25.8702,-4.9237,1,0,0
0.0227,0.1729,1.0854,-10.2824,34.6718,-13.2977,1,0,0
0.0298,0.1838,1.0835,-17.3664,40.5954,-21.7863,1,0,0
0.0674,0.1506,1.0898,-27.0611,43.3511,-26.0611,1,0,0
0.0557,0.1323,1.0459,-31.2061,43.8244,-30.1679,1,0,0
0.0884,0.0925,1.0005,-32.3511,41.7634,-28.2519,1,0,0
0.1055,0.0598,0.9924,-27.6794,38.5038,-24.7863,1,0,0
0.0911,0.0383,0.9849,-20.8168,37.5725,-18.9008,1,0,0
0.0598,0.0471,0.999,-15.855,34.5649,-12.4885,1,0,0
0.0149,0.0637,1.0083,-12.6794,31.7863,-10.9924,1,0,0
0.0527,0.0842,1.0425,-12.9237,32.1679,-10.6718,1,0,0
0.0234,0.0703,1.0398,-15.2901,39.0458,-10.1374,1,0,0
-0.0168,0.0732,0.9951,-14.9771,40.2672,-11.6031,1,0,0
-0.0317,0.0745,0.97,-11.1908,36.0229,-12.8626,1,0,0
-0.0493,0.0586,0.9924,-8.374,27.5649,-10.7939,1,0,0
-0.0149,0.0703,0.9939,-6.145,19.458,-8.7405,1,0,0
0.0244,0.0649,1.0317,-5.7328,16.8244,-7.6336,1,0,0
0.0027,0.0557,1.03,-6.9389,15.9618,-3.7634,1,0,0
-0.0095,0.0593,1.0264,-6.4122,14.7099,-1.5115,1,0,0
-0.053,0.0586,1.012,-6.3511,12.145,-0.7786,1,0,0
-0.0596,0.0603,1.0059,-4.1679,7.0,-1.1756,1,0,0
-0.0266,0.0637,1.0203,-2.0229,2.7557,-0.2901,1,0,0
0.0029,0.0574,1.051,-1.9389,6.8321,-0.229,1,0,0
-0.0173,0.0664,1.0491,-2.771,13.9237,-0.8092,1,0,0
-0.0396,0.0708,1.0557,-4.0153,19.542,-2.3664,1,0,0
-0.0728,0.0745,1.0286,-5.9084,20.145,-3.3588,1,0,0
-0.0671,0.0664,1.0208,-5.0076,16.0992,-4.2137,1,0,0
-0.0608,0.0645,1.0144,-4.3053,10.5802,-2.3053,1,0,0
-0.0688,0.0613,1.0046,-3.1603,2.2214,0.5725,1,0,0
-0.0759,0.0681,1.0017,-2.2137,-8.5115,4.145,1,0,0
-0.0552,0.0706,1.0103,-2.5344,-14.1603,5.9847,1,0,0
-0.0232,0.0649,1.0259,-3.0076,-14.7405,5.7405,1,0,0
-0.009,0.0627,1.0312,-3.2595,-10.7786,4.9924,1,0,0
-0.0481,0.0569,1.012,-4.2901,-12.2901,6.9618,1,0,0
-0.0212,0.0508,1.0186,-2.4275,-11.9847,6.8397,1,0,0
-0.0225,0.042,1.0083,-0.374,-9.4733,7.5802,1,0,0
-0.0295,0.0491,1.0161,2.4733,-5.5496,8.6183,1,0,0
-0.0215,0.0576,1.0374,4.0992,0.2061,7.1985,1,0,0
-0.0557,0.064,1.0183,3.8702,1.5496,7.0076,1,0,0
-0.0527,0.0654,1.0183,3.6336,-2.4733,7.0305,1,0,0
-0.0159,0.0637,1.042,2.9466,-4.5038,8.9084,1,0,0
-0.0044,0.0459,1.0583,2.458,-4.5191,13.2977,1,0,0
0.0444,0.0249,1.0693,2.9313,2.542,23.9924,1,0,0
-0.0271,0.0642,1.0181,3.0382,8.2366,28.5344,1,0,0
-0.0537,0.0852,0.9956,3.3435,5.8626,26.9313,1,0,0
-0.0386,0.0762,1.0137,2.6031,2.8779,25.4198,1,0,0
-0.0027,0.0667,1.0435,0.313,4.1832,29.6641,1,0,0
-0.0017,0.0798,1.064,-2.626,8.2672,30.6031,1,0,0
-0.0366,0.0872,1.0591,-6.3664,10.5038,29.7481,1,0,0
-0.0613,0.0925,1.042,-11.1298,10.0382,29.771,1,0,0
-0.0591,0.0769,1.0425,-14.0153,8.1145,33.313,1,0,0
-0.0413,0.0491,1.0425,-17.1985,6.5954,38.771,1,0,0
0.0015,0.0164,1.0623,-18.1221,9.0611,52.7023,1,0,0
0.0256,0.0254,1.0479,-18.8931,14.4885,66.3664,1,0,0
0.0313,0.064,1.0479,-19.0,21.4122,69.1908,1,0,0
-0.0164,0.0999,1.0283,-18.9008,28.6641,61.0076,1,0,0
-0.072,0.0879,1.0029,-17.0305,27.9237,50.2977,1,0,0
-0.1052,0.0767,0.9868,-13.7328,20.4809,44.3588,1,0,0
-0.1208,0.0637,0.9902,-12.0229,11.5344,42.9008,1,0,0
-0.1172,0.061,0.9863,-11.6336,2.7405,44.5954,1,0,0
-0.1062,0.073,1.011,-10.1603,-1.5344,39.4122,1,0,0
-0.114,0.0847,1.0232,-8.8702,-0.3588,34.0687,1,0,0
-0.1213,0.0793,1.0352,-8.9313,2.0153,26.1679,1,0,0
-0.1313,0.1025,1.0154,-8.6336,4.229,16.5878,1,0,0
-0.0815,0.075,1.0166,-8.9237,7.1145,8.9924,1,0,0
-0.0598,0.0464,1.0149,-7.6107,12.1908,7.2672,1,0,0
0.0066,-0.0049,1.0256,-3.9618,17.2214,8.5344,1,0,0
-0.0173,0.0317,1.0103,0.6183,21.8779,12.145,1,0,0
-0.0771,0.061,1.0024,0.1756,20.3817,11.0611,1,0,0
-0.0994,0.073,1.0217,-1.4962,13.8092,8.9542,1,0,0
-0.0681,0.054,1.0671,-6.4275,11.8473,15.1145,1,0,0
-0.0874,0.071,1.0588,-10.2519,15.626,14.5267,1,0,0
-0.1038,0.0615,1.0303,-14.4656,16.6336,11.4962,1,0,0
-0.1223,0.053,1.0156,-15.2137,14.1832,8.7634,1,0,0
-0.1179,0.0352,1.0225,-13.084,10.2824,7.4351,1,0,0
-0.1204,0.0408,1.0166,-11.145,4.6565,6.2901,1,0,0
-0.03,-0.0044,1.0679,-12.9695,7.2443,16.7939,1,0,0
-0.0598,0.0071,1.0374,-12.8855,15.9847,19.6794,1,0,0
-0.0859,0.0173,1.0154,-11.4198,17.8397,16.1679,1,0,0
-0.0908,0.011,1.0081,-10.0687,17.3664,15.6336,1,0,0
-0.1108,0.0164,1.0144,-9.4275,14.7939,17.0458,1,0,0
-0.1013,0.0327,1.0286,-10.1374,12.2214,20.5344,1,0,0
-0.1079,0.0364,1.0364,-10.0458,9.3969,21.9084,1,0,0
-0.0835,0.0339,1.0503,-10.0763,8.7023,20.9313,1,0,0
-0.113,0.0142,1.0256,-11.3053,8.2977,23.4351,1,0,0
-0.1287,0.0393,1.0059,-10.4809,4.9924,21.3511,1,0,0
-0.1125,0.0059,1.0186,-10.6107,2.5954,22.8015,1,0,0
-0.0894,0.0217,1.0051,-8.9313,1.1221,26.8092,1,0,0
-0.0576,-0.0129,1.0269,-6.9847,5.4885,31.1298,1,0,0
-0.1025,0.0205,1.0105,-5.6641,9.5802,32.6336,1,0,0
-0.1006,0.0054,0.9985,-6.916,11.1756,31.084,1,0,0
-0.1199,0.0288,1.0137,-6.1679,9.9771,30.7176,1,0,0
-0.1338,0.0273,1.019,-7.5115,3.9008,32.916,1,0,0
-0.1348,0.0232,1.0037,-6.3053,-2.1603,32.5344,1,0,0
-0.1631,0.0313,1.0027,-5.5496,-8.9847,31.6641,1,0,0
-0.1836,0.0427,1.0083,-4.9084,-16.1298,30.3359,1,0,0
-0.1702,0.0554,1.032,-5.1527,-20.1985,26.5954,1,0,0
-0.1504,0.0579,1.0352,-6.229,-18.7557,22.4733,1,0,0
-0.1682,0.0513,1.0271,-6.6031,-17.1527,16.9084,1,0,0
-0.1296,0.0425,1.0315,-6.9695,-17.7939,15.1374,1,0,0
-0.1189,0.0195,1.011,-7.8931,-18.5267,20.9389,1,0,0
-0.1809,0.0308,0.9631,-7.7863,-29.0076,23.0763,1,0,0
-0.1675,0.0222,0.9741,-8.5191,-45.8931,26.0687,1,0,0
-0.103,0.0383,0.9897,-9.4122,-58.8931,26.4427,1,0,0
-0.0776,0.0105,0.9954,-7.6412,-66.2901,21.7863,1,0,0
-0.0449,0.0063,1.0088,-5.0305,-67.2748,16.687,1,0,0
-0.0359,0.0012,1.0098,-1.4275,-64.1374,11.3206,1,0,0
-0.0303,-0.002,1.0161,1.6183,-62.3893,5.2366,1,0,0
-0.0298,0.0107,1.0117,5.0916,-59.7099,-0.7023,1,0,0
-0.0208,0.0261,1.0237,6.6565,-58.2977,-3.2061,1,0,0
-0.0093,0.0393,1.0317,6.9924,-58.145,-1.6412,1,0,0
0.0374,0.0405,1.0732,2.3588,-53.8397,7.7176,1,0,0
0.0271,0.051,1.0784,-2.8626,-46.0,14.5802,1,0,0
0.0376,0.0383,1.0835,-7.2824,-35.6336,14.855,1,0,0
0.0405,0.019,1.0488,-7.7176,-22.9695,6.4656,1,0,0
0.0613,-0.0037,1.0288,-5.5191,-14.3893,0.5954,1,0,0
0.075,-0.0132,1.0178,-1.4275,-8.1221,-1.0076,1,0,0
0.075,-0.0078,1.0327,1.3817,-6.2672,-1.4275,1,0,0
0.0781,0.019,1.0532,0.9771,-5.2901,2.6565,1,0,0
0.0442,0.0293,1.0486,-2.7786,-9.0534,12.771,1,0,0
-0.0134,0.0417,1.001,-5.7405,-21.5573,10.5878,1,0,0
-0.0125,0.011,0.9426,-4.8015,-43.1374,10.4275,1,0,0
-0.0056,-0.0105,0.905,0.1679,-71.6031,15.458,1,0,0
0.0693,-0.0212,0.9634,6.7252,-93.2672,20.7557,1,0,0
0.1748,-0.0356,1.0481,10.8931,-94.3206,24.084,1,0,0
0.1682,0.0168,1.0898,11.5038,-77.0458,22.9389,1,0,0
0.1504,0.0273,1.0984,8.7786,-56.1756,15.4275,1,0,0
0.1812,0.0935,1.0786,5.1679,-35.4733,10.771,1,0,0
0.1252,0.0286,1.0564,3.9618,-20.8168,9.0916,1,0,0
0.1172,0.0278,1.0244,3.8168,-13.5725,4.3511,1,0,0
0.1301,0.0313,1.0273,3.5496,-9.0534,1.3893,1,0,0
0.1311,0.0325,1.0122,3.1221,-6.7863,0.7099,1,0,0
0.1467,0.0288,1.0171,2.8473,-4.9924,1.6718,1,0,0
0.1433,0.0405,1.0276,2.4122,-2.6565,-0.084,1,0,0
0.1619,0.0378,1.0425,1.4656,0.5344,-0.7176,1,0,0
0.1707,0.05,1.0303,-0.8855,3.1298,1.2672,1,0,0
0.1714,0.0325,1.0337,-3.0076,3.5725,5.4504,1,0,0
0.1538,0.0444,1.0366,-4.4046,2.7786,6.2137,1,0,0
0.156,0.0286,1.0601,-6.6794,4.3282,6.5496,1,0,0
0.1392,0.0303,1.0442,-7.9313,5.0534,6.8779,1,0,0
0.1335,0.0405,1.0227,-8.3969,4.7328,6.1908,1,0,0
0.1355,0.0359,1.0171,-9.8473,5.1069,8.0305,1,0,0
0.1218,0.0146,1.0215,-8.4427,6.1603,7.3511,1,0,0
0.1252,0.0259,1.0249,-8.4198,5.7099,4.8015,1,0,0
0.1455,0.0027,1.0254,-8.6336,6.9695,3.5115,1,0,0
0.1277,0.0205,0.9983,-8.0534,7.3359,2.4962,1,0,0
0.1729,0.0134,1.0127,-9.7786,9.2977,7.0916,1,0,0
0.176,0.0049,1.0508,-9.2366,17.1832,10.2061,1,0,0
0.134,0.0269,1.0449,-11.3893,20.3359,10.7481,1,0,0
0.115,0.0374,1.021,-14.7405,15.5267,10.313,1,0,0
0.1211,0.001,1.0193,-17.145,8.8321,16.6183,1,0,0
0.1179,0.0054,1.0117,-17.0916,3.374,19.5802,1,0,0
0.1038,0.002,1.0125,-16.5878,0.9542,18.771,1,0,0
0.0857,0.0056,1.0063,-16.2672,-1.5954,16.1832,1,0,0
0.0669,0.001,0.9939,-15.9389,-6.3206,13.1985,1,0,0
0.0984,0.0044,1.002,-15.7863,-11.6031,14.7481,1,0,0
0.1064,-0.0029,1.0339,-17.1069,-11.3969,18.0229,1,0,0
0.1274,-0.0115,1.0308,-19.542,-10.2366,16.4046,1,0,0
0.1465,-0.0234,1.0066,-19.9466,-7.4122,17.5496,1,0,0
0.1433,-0.0474,0.9819,-16.7099,-5.6489,19.6489,1,0,0
0.1262,-0.0469,0.9619,-11.0305,-6.1756,16.229,1,0,0
0.1545,-0.0422,0.9795,-6.8779,-6.1374,17.0076,1,0,0
0.1404,-0.0454,1.0049,-5.0992,-6.2443,19.9542,1,0,0
0.123,-0.0242,1.0046,-4.9847,-8.3817,17.145,1,0,0
0.1477,-0.0237,1.0549,-8.5954,-8.2901,19.3969,1,0,0
0.1648,-0.0156,1.0947,-15.3435,-7.5191,20.5954,1,0,0
0.1724,-0.0427,1.1077,-21.0687,-8.4427,22.3664,1,0,0
0.167,-0.0598,1.0725,-24.6183,-9.4733,23.0687,1,0,0
0.1543,-0.0588,1.019,-23.2672,-10.7863,21.3588,1,0,0
0.1345,-0.0786,0.9927,-19.2061,-10.3282,22.1603,1,0,0
0.1362,-0.0479,0.9771,-13.0534,-9.7328,19.1221,1,0,0
0.168,-0.0664,1.0225,-11.9771,-4.8855,26.313,1,0,0
0.1362,-0.0486,1.0334,-12.6794,-1.3435,26.0,1,0,0
0.1831,-0.0859,1.0442,-14.084,2.6336,26.3893,1,0,0
0.1438,-0.0796,1.0093,-12.313,2.7786,27.3969,1,0,0
0.1243,-0.0627,0.9944,-10.3969,-0.4046,25.8931,1,0,0
0.1079,-0.0791,0.9761,-6.2366,-2.7252,20.9924,1,0,0
0.1001,-0.0786,0.969,-1.3053,-3.3053,15.8244,1,0,0
0.0759,-0.0693,0.9648,4.5649,-5.3969,8.0763,1,0,0
0.0984,-0.051,0.9746,7.8702,-6.0458,1.313,1,0,0
0.1099,-0.0139,0.9983,10.3282,-6.7939,-0.5573,1,0,0
0.1553,-0.0256,1.0781,5.4198,-5.9847,7.8779,1,0,0
0.1526,0.0095,1.1072,-5.0763,-6.5649,10.6947,1,0,0
0.1824,-0.0071,1.1521,-18.5802,-4.9695,16.2443,1,0,0
0.198,-0.0552,1.1104,-28.687,-2.8397,20.8855,1,0,0
0.1614,-0.0947,1.0173,-29.9389,-3.7328,22.6107,1,0,0
0.1292,-0.1199,0.9487,-23.1679,-7.0611,18.9008,1,0,0
0.1208,-0.137,0.9287,-12.1756,-8.5191,14.0305,1,0,0
0.1079,-0.1165,0.926,-1.0534,-8.1679,7.1069,1,0,0
0.106,-0.1001,0.9548,6.9618,-6.0076,2.0076,1,0,0
0.0972,-0.0881,0.9729,11.7481,-4.0763,-3.0076,1,0,0
0.1101,-0.0708,0.9968,15.2519,-4.5954,-7.3511,1,0,0
0.126,-0.0647,1.0244,17.6412,-5.6183,-10.1527,1,0,0
0.1597,-0.0498,1.0728,15.6031,-2.8779,-11.6641,1,0,0
0.1687,-0.0127,1.1016,8.0458,3.5649,-10.9313,1,0,0
0.1355,-0.0273,1.071,0.4656,5.9084,-9.229,1,0,0
0.1509,-0.0637,1.0081,-1.5954,2.2824,-11.6489,1,0,0
0.2148,-0.1035,0.9998,0.4427,1.145,-9.8626,1,0,0
0.2251,-0.1128,1.0081,3.6947,3.4427,-4.9542,1,0,0
0.1726,-0.0872,1.0144,6.9618,7.7863,-5.0763,1,0,0
0.146,-0.0745,1.0159,9.0382,11.5649,-9.6489,1,0,0
0.1545,-0.0676,1.04,11.5573,18.4122,-11.3588,1,0,0
0.1306,-0.0408,1.063,11.458,26.0305,-14.1298,1,0,0
0.1443,-0.0476,1.0847,10.229,35.3435,-16.1298,1,0,0
0.1084,-0.0242,1.0784,10.229,43.7099,-17.8397,1,0,0
0.1272,-0.0232,1.0471,8.542,48.2214,-24.6947,1,0,0
0.1223,-0.0637,1.022,9.1985,51.2824,-27.6794,1,0,0
0.1389,-0.0391,1.0046,8.916,50.1527,-22.9313,1,0,0
0.0981,-0.053,1.002,7.6183,46.3359,-17.0,1,0,0
0.0845,-0.0464,1.0146,5.2214,38.771,-12.7252,1,0,0
0.0696,-0.0457,1.0137,2.9084,32.3588,-10.313,1,0,0
0.0603,-0.0425,1.021,2.1908,26.8244,-9.4351,1,0,0
0.0676,-0.0237,1.0413,1.8168,26.145,-7.5878,1,0,0
0.042,-0.0012,1.0415,0.3206,26.7481,-6.0534,1,0,0
0.0168,-0.0144,1.0417,-2.084,25.3588,-6.0382,1,0,0
0.0127,-0.0107,1.019,-2.542,21.145,-7.6565,1,0,0
0.0237,-0.0166,1.0259,-4.5267,16.5496,-8.8092,1,0,0
0.0505,-0.0388,1.0344,-6.9237,13.8626,-11.0916,1,0,0
0.084,-0.052,1.0503,-9.6336,12.8931,-8.6183,1,0,0
0.0879,-0.0698,1.0461,-12.4427,11.9771,-3.3664,1,0,0
0.0793,-0.0618,1.0273,-13.0611,11.0916,-0.0153,1,0,0
0.0684,-0.0723,1.0149,-13.7023,11.3893,2.229,1,0,0
0.0471,-0.0679,1.0115,-11.8092,10.7176,3.0305,1,0,0
0.021,-0.0559,1.0171,-10.3664,8.9924,2.9466,1,0,0
0.0168,-0.0391,1.0193,-10.2672,7.8702,3.0992,1,0,0
0.032,-0.0427,1.05,-12.0916,10.7023,3.8168,1,0,0
0.0034,-0.0525,1.0398,-13.8779,12.4351,1.7252,1,0,0
0.0295,-0.0662,1.0129,-12.4275,11.8626,0.4275,1,0,0
0.0298,-0.0706,1.0103,-9.2977,11.4733,3.1069,1,0,0
-0.0017,-0.0588,1.0085,-6.3817,10.2672,3.2748,1,0,0
0.0059,-0.0603,1.0232,-5.3435,7.9771,2.4198,1,0,0
0.0378,-0.0522,1.0281,-5.8015,9.2137,3.1527,1,0,0
0.0754,-0.0798,1.0591,-7.9084,13.5191,3.7405,1,0,0
0.0767,-0.092,1.0625,-8.9313,18.4656,8.313,1,0,0
0.0254,-0.084,1.0415,-9.3969,19.8855,11.5267,1,0,0
-0.0222,-0.0784,1.0278,-8.5573,20.2901,9.9924,1,0,0
-0.0066,-0.0681,1.0552,-8.5267,22.6183,9.1832,1,0,0
0.0405,-0.0801,1.0835,-7.4809,30.5649,12.9924,1,0,0
0.0022,-0.0752,1.0667,-5.2443,38.7557,14.7786,1,0,0
-0.0308,-0.063,1.0317,-3.626,42.0305,12.7405,1,0,0
-0.0491,-0.0547,1.0344,-6.0534,39.2366,12.4733,1,0,0
-0.0793,-0.0315,1.0281,-12.5344,34.8931,7.6183,1,0,0
-0.0259,-0.071,1.0222,-17.2672,29.2061,4.313,1,0,0
-0.0046,-0.1196,1.0078,-15.0916,26.313,8.5038,1,0,0
-0.0417,-0.0881,0.9915,-12.4656,21.4275,12.4427,1,0,0
-0.0554,-0.0818,0.9985,-12.2061,18.6794,15.8397,1,0,0
-0.0671,-0.0769,1.0081,-12.8397,18.4656,16.687,1,0,0
-0.0554,-0.0742,1.0286,-13.5802,22.4656,18.3359,1,0,0
-0.0896,-0.0728,1.0122,-14.3588,23.8321,17.626,1,0,0
-0.1033,-0.083,0.9973,-14.1832,21.4656,16.3893,1,0,0
-0.1055,-0.1047,0.9849,-11.7328,18.6412,12.4809,1,0,0
-0.0757,-0.0991,0.9917,-9.6412,15.8092,12.5496,1,0,0
-0.0513,-0.1267,1.0229,-7.1374,16.3435,16.2366,1,0,0
-0.0134,-0.1362,1.0503,-5.7863,19.4046,24.229,1,0,0
-0.0559,-0.1279,1.0549,-6.0,23.7557,28.9466,1,0,0
-0.1001,-0.0996,1.0266,-8.3969,24.3282,28.1679,1,0,0
-0.1462,-0.0867,0.9922,-9.3282,20.6489,24.7481,1,0,0
-0.1082,-0.0884,0.9983,-9.8779,16.7634,25.0076,1,0,0
-0.1172,-0.0835,1.0146,-9.8015,15.4504,28.0,1,0,0
-0.134,-0.095,1.0139,-10.3893,13.7176,28.1603,1,0,0
-0.1331,-0.1028,1.0271,-10.3817,13.6718,26.7328,1,0,0
-0.1528,-0.0872,1.0078,-10.145,13.6183,23.6641,1,0,0
-0.1987,-0.0811,0.9824,-10.3817,10.7939,18.2748,1,0,0
-0.1882,-0.0977,0.9866,-7.1832,7.0305,10.0916,1,0,0
-0.1846,-0.0974,0.9985,-3.1679,3.4122,2.3435,1,0,0
-0.1084,-0.0952,1.0256,-1.374,2.3969,-1.7481,1,0,0
-0.0898,-0.1187,1.0381,-2.7099,5.0305,1.7023,1,0,0
-0.1157,-0.0825,1.0115,-3.2824,3.3893,3.0229,1,0,0
-0.0869,-0.0786,1.0339,-8.7176,6.0,12.6336,1,0,0
-0.1606,-0.1074,0.9741,-8.2366,2.542,14.145,1,0,0
-0.1138,-0.1111,0.9873,-7.2595,2.3053,13.1756,1,0,0
-0.1189,-0.1313,0.9695,-4.9618,5.9313,11.6565,1,0,0
-0.1199,-0.1423,0.9656,-0.4809,9.2366,13.3893,1,0,0
-0.1719,-0.1226,0.9624,4.229,7.9847,11.0992,1,0,0
-0.1921,-0.1052,0.9705,6.626,4.9542,5.0076,1,0,0
-0.1741,-0.0762,0.9917,7.3893,1.5649,0.2595,1,0,0
-0.1536,-0.0854,1.0417,5.8473,1.1985,0.1832,1,0,0
-0.1572,-0.0776,1.0415,4.8244,2.5267,-0.6183,1,0,0
-0.1804,-0.0793,1.0305,3.542,1.3359,-2.5267,1,0,0
-0.1699,-0.0667,0.9995,3.2137,-3.6794,-5.5496,1,0,0
-0.147,-0.093,1.0054,3.8855,-7.0153,-3.4656,1,0,0
-0.1545,-0.0979,0.9897,6.9466,-10.1603,-5.687,1,0,0
-0.1392,-0.1353,0.9749,13.0992,-11.5191,-10.1908,1,0,0
-0.1628,-0.135,0.9148,24.4427,-16.4427,-15.5115,1,0,0
-0.1584,-0.0889,0.9189,33.4351,-21.8473,-19.313,1,0,0
-0.1672,-0.0547,0.9736,36.7481,-24.9695,-24.2672,1,0,0
-0.1248,-0.0344,1.0259,37.6183,-28.0,-27.542,1,0,0
-0.1165,-0.0149,1.0427,34.145,-30.5114,-22.2443,1,0,0
-0.1011,0.0342,1.0149,29.8321,-40.4275,-19.1298,1,0,0
-0.021,-0.019,1.0962,20.1832,-39.687,-4.1603,1,0,0
-0.0862,-0.0496,1.071,17.9618,-34.6031,0.5649,1,0,0
-0.1011,-0.02,1.0725,15.8168,-31.3359,-4.1679,1,0,0
-0.1035,-0.019,1.0605,10.6947,-27.0382,-7.6794,1,0,0
-0.1323,-0.0354,1.0154,9.6336,-26.4504,-13.6489,1,0,0
-0.083,-0.041,1.0046,12.3359,-27.4885,-15.8473,1,0,0
-0.0566,-0.0725,0.9792,18.3664,-26.9847,-12.6489,1,0,0
-0.0996,-0.0417,0.9631,23.855,-30.3359,-9.9847,1,0,0
-0.1479,0.0095,0.9802,24.6794,-33.5344,-14.7481,1,0,0
-0.1316,0.0479,1.0159,20.2672,-34.2672,-22.7939,1,0,0
-0.0212,0.0142,1.0962,14.6183,-27.8931,-26.6565,1,0,0
0.001,-0.0088,1.1028,9.2901,-20.5191,-22.9008,1,0,0
-0.0291,-0.0107,1.0686,4.7634,-22.8855,-23.4885,1,0,0
-0.0195,-0.0217,1.042,2.2824,-27.3893,-26.9084,1,0,0
-0.0154,-0.0381,1.0278,2.8702,-28.3664,-30.5114,1,0,0
-0.0452,-0.0259,1.0149,4.771,-27.9466,-34.4198,1,0,0
-0.0645,-0.0386,0.9983,8.7405,-29.1679,-40.3893,1,0,0
-0.1025,-0.0244,0.9639,14.2901,-33.1221,-50.6031,1,0,0
-0.1189,-0.0029,0.9795,21.3359,-37.9008,-63.4046,1,0,0
-0.0188,0.0752,1.0408,23.6412,-36.771,-71.6183,1,0,0
0.0374,0.0547,1.0945,17.6641,-26.2061,-64.9618,1,0,0
0.0383,0.0518,1.0681,14.4275,-16.0305,-59.1298,1,0,0
0.0508,0.0229,1.0554,13.1908,-9.2366,-54.0305,1,0,0
0.0371,0.0208,1.0051,13.6794,-11.4275,-51.8092,1,0,0
0.0562,-0.0029,0.9844,13.8702,-18.0763,-48.8397,1,0,0
0.0442,-0.0137,0.988,17.2366,-26.2061,-47.5878,1,0,0
0.041,-0.0117,0.9963,22.4504,-32.6794,-51.0,1,0,0
0.0139,0.0093,0.9866,27.5191,-37.6489,-58.2977,1,0,0
0.0203,0.0422,1.0054,32.4504,-40.6412,-64.397,1,0,0
0.0107,0.0981,1.0022,34.5802,-41.9313,-68.6489,1,0,0
0.0229,0.1082,1.0315,32.7023,-42.7176,-68.3053,1,0,0
0.0391,0.1169,1.0483,29.5649,-41.4885,-67.7023,1,0,0
0.0713,0.1138,1.0615,26.2443,-40.8244,-66.397,1,0,0
0.0994,0.1025,1.0747,21.8931,-41.1908,-62.1221,1,0,0
0.0996,0.116,1.0706,16.3969,-43.0305,-57.3282,1,0,0
0.1106,0.1182,1.0601,10.1908,-45.374,-54.5878,1,0,0
0.1228,0.1162,1.0369,4.7939,-48.2824,-52.3893,1,0,0
0.158,0.075,1.0359,1.4351,-49.1603,-49.0,1,0,0
0.2219,0.0471,1.0334,1.1145,-44.1374,-44.0916,1,0,0
0.2449,0.0386,1.0198,2.4656,-35.5573,-37.2519,1,0,0
0.2773,0.0217,1.0439,3.1756,-24.5038,-29.1679,1,0,0
0.2644,0.0452,1.0691,2.5191,-12.8397,-16.9847,1,0,0
0.2234,0.0693,1.0835,-2.8092,-3.4046,-6.1221,1,0,0
0.2231,0.0603,1.0955,-9.1298,3.0611,2.916,1,0,0
0.2117,0.0635,1.0674,-13.3588,8.1603,13.1908,1,0,0
0.2031,0.0664,1.0513,-17.2824,12.2901,21.4275,1,0,0
0.2212,0.0332,1.0789,-22.3893,20.9771,30.3664,1,0,0
0.2156,0.0598,1.0913,-24.6412,34.4733,28.7634,1,0,0
0.2024,0.0459,1.0625,-25.8397,45.5191,23.4198,1,0,0
0.2263,0.0166,1.0476,-24.0763,54.3893,25.9771,1,0,0
0.1433,0.0056,1.0171,-21.1985,60.4122,32.1298,1,0,0
0.0427,0.0547,0.9719,-18.2977,54.6489,28.0687,1,0,0
0.0095,0.0647,0.98,-19.2748,45.0,24.3588,1,0,0
-0.0115,0.0615,0.9851,-19.5954,34.6947,21.8626,1,0,0
0.0417,0.1038,1.0054,-22.4427,27.7481,25.7328,1,0,0
0.072,0.0364,1.0647,-25.7863,31.3588,32.3053,1,0,0
0.083,0.0466,1.031,-25.8931,34.9695,26.8931,1,0,0
0.0403,0.0237,1.0073,-23.9618,32.8626,21.4809,1,0,0
0.021,0.0283,0.9939,-21.0229,27.9924,19.0687,1,0,0
-0.0044,0.0251,0.9907,-20.145,23.7481,18.5191,1,0,0
-0.0308,0.0352,0.9722,-17.8779,16.6183,14.4427,1,0,0
-0.0093,0.0281,0.9871,-19.0763,10.0916,17.6641,1,0,0
-0.0039,0.0132,0.9912,-17.2443,7.0,15.5802,1,0,0
0.0129,0.032,1.0081,-15.2748,5.8931,12.8015,1,0,0
0.0313,0.0203,1.0444,-14.4885,5.7634,13.6336,1,0,0
0.0508,0.0525,1.0925,-15.9542,10.1756,18.7252,1,0,0
-0.0144,0.0566,1.1011,-23.0382,15.8702,20.4351,1,0,0
-0.0547,0.043,1.0339,-27.0229,13.4504,11.6031,1,0,0
-0.0227,0.0159,1.0083,-27.2672,10.1069,6.7557,1,0,0
0.0325,-0.0195,1.0374,-27.313,10.8321,5.6336,1,0,0
0.0212,-0.0371,1.0117,-23.313,10.6947,2.7099,1,0,0
0.0654,-0.0374,1.0068,-15.626,12.6794,0.8321,1,0,0
0.0745,-0.0564,1.0198,-11.8626,17.5954,7.7023,1,0,0
0.0422,-0.0513,1.0129,-8.6489,20.8779,9.3893,1,0,0
0.0801,-0.0398,1.0408,-7.1221,27.9618,8.6641,1,0,0
0.0117,-0.0474,1.0256,-5.3969,43.6489,5.7634,1,0,0
0.0293,-0.0347,0.9854,-4.6718,55.4351,3.1985,1,0,0
-0.0449,-0.0715,0.9534,-0.3435,63.5802,4.0153,1,0,0
-0.0916,-0.0571,0.9089,8.5725,58.7252,-0.0458,1,0,0
-0.1182,-0.0493,0.8962,16.1908,43.0458,0.0,1,0,0
-0.0923,-0.03,0.9443,18.9008,24.5344,2.3817,1,0,0
-0.0889,-0.0215,1.0137,18.5496,9.1145,3.5725,1,0,0
-0.1106,0.0002,1.0317,17.0076,-4.084,0.7557,1,0,0
-0.0955,0.0474,1.0625,10.2901,-15.4962,2.3359,1,0,0
-0.1333,0.0364,1.022,-0.0611,-30.229,4.542,1,0,0
-0.1406,0.0034,0.9851,-1.4351,-52.1908,2.1374,1,0,0
-0.0781,0.021,0.9998,-3.0229,-69.7863,5.1985,1,0,0
0.0002,-0.0061,1.0298,-9.084,-80.374,16.7481,1,0,0
0.0557,-0.0696,1.0449,-10.0763,-77.229,24.9237,1,0,0
0.0574,-0.041,1.0686,-6.1603,-64.3511,22.5267,1,0,0
0.0183,-0.0259,1.0378,-4.0992,-53.1069,15.1145,1,0,0
0.0205,-0.0386,1.0203,1.4504,-45.5191,11.8397,1,0,0
-0.0032,-0.0002,1.0356,7.3588,-41.6718,7.687,1,0,0
-0.0051,0.0298,1.0718,7.2366,-40.9313,1.8015,1,0,0
0.0332,0.0461,1.095,3.0534,-41.687,-3.4046,1,0,0
0.05,0.0303,1.0762,-0.6412,-41.8092,-5.6565,1,0,0
0.073,0.0244,1.061,-3.0076,-42.0687,-6.7023,1,0,0
0.0906,0.0063,1.0566,-4.5267,-39.5267,-5.9389,1,0,0
0.1335,0.0088,1.0493,-5.4504,-34.8015,-2.5496,1,0,0
0.1494,-0.0232,1.0591,-4.1603,-25.1298,2.4504,1,0,0
0.1472,-0.0137,1.0537,-1.8779,-14.1756,1.9313,1,0,0
0.1077,-0.0107,1.0315,-0.145,-6.6947,1.9313,1,0,0
0.0908,-0.0083,1.0247,1.4504,-4.2748,0.7939,1,0,0
0.094,0.0078,1.0432,1.7405,-0.6641,0.0992,1,0,0
0.0708,0.0159,1.0393,0.0992,1.084,-1.6794,1,0,0
0.0742,-0.0012,1.0298,-1.2214,-0.9771,-4.3359,1,0,0
0.1235,0.0161,1.0498,-0.687,-0.2443,-3.2061,1,0,0
0.1221,0.0146,1.0698,-2.5344,4.4962,0.9466,1,0,0
0.137,0.0059,1.0815,-5.0,11.1985,3.2519,1,0,0
0.1948,-0.0144,1.0779,-5.9389,23.7634,3.3893,1,0,0
0.1868,-0.0313,1.0671,-5.1603,39.855,7.9313,1,0,0
0.1262,-0.0364,1.041,-4.1527,50.3282,9.8397,1,0,0
0.0898,-0.0156,1.0295,-3.6031,55.0534,6.1679,1,0,0
0.0503,-0.0286,1.0312,-3.7634,56.1832,5.6107,1,0,0
-0.0203,0.0063,1.0088,-4.8321,49.7786,4.458,1,0,0
-0.0244,0.0518,1.0186,-9.9313,41.6412,2.6565,1,0,0
0.0144,0.0176,1.0696,-16.9771,37.3359,7.3511,1,0,0
-0.0085,0.0103,1.0515,-20.7863,37.5649,6.0153,1,0,0
-0.0205,-0.0078,1.0239,-22.4046,34.1756,2.626,1,0,0
-0.0173,-0.0315,0.9998,-20.2137,35.7405,-1.6183,1,0,0
-0.0479,-0.041,0.968,-16.2061,33.6794,-4.3511,1,0,0
-0.0352,-0.0269,0.9504,-11.7023,27.0992,-7.7252,1,0,0
0.0718,-0.0789,1.0015,-9.7328,27.6718,-1.7786,1,0,0
0.0513,-0.1028,0.9749,-5.3664,31.6641,3.8855,1,0,0
-0.0017,-0.0896,0.9507,1.145,28.6718,5.1679,1,0,0
-0.0369,-0.0728,0.9658,6.2748,21.8168,6.626,1,0,0
-0.0745,-0.0459,0.9788,7.7939,12.3817,5.7328,1,0,0
-0.1016,-0.0115,1.0027,6.8626,2.4198,4.6718,1,0,0
-0.1189,0.0276,1.0381,1.9466,-8.0763,4.3282,1,0,0
-0.1428,0.0286,1.0137,-4.7863,-22.5649,1.4885,1,0,0
-0.062,0.0303,1.0371,-8.5573,-34.0076,0.8779,1,0,0
-0.0315,-0.001,1.0845,-13.6947,-32.4351,6.8779,1,0,0
-0.1118,0.0356,1.0054,-22.9924,-41.2061,6.374,1,0,0
-0.0537,-0.0242,0.9978,-26.2901,-53.5115,5.3969,1,0,0
0.0156,-0.0566,1.0034,-25.916,-58.4809,5.2519,1,0,0
0.0977,-0.1008,1.0278,-20.4504,-49.8397,5.6794,1,0,0
0.0815,-0.1055,0.9949,-11.229,-36.1603,3.9466,1,0,0
0.0371,-0.103,0.9702,-1.7557,-30.0458,-0.1603,1,0,0
0.0083,-0.0593,0.9639,4.626,-32.2672,-3.6412,1,0,0
0.0361,-0.0452,1.0325,5.0534,-35.771,-0.7939,1,0,0
0.0356,-0.0298,1.074,2.3053,-37.1527,0.0458,1,0,0
0.0947,-0.0413,1.0842,-0.0382,-35.8092,-2.3053,1,0,0
0.1533,-0.0369,1.1001,-0.0611,-24.5344,-2.313,1,0,0
0.1514,-0.0552,1.1223,-0.5954,-9.2977,2.2824,1,0,0
0.0688,-0.0339,1.0603,0.3969,-1.3282,0.6794,1,0,0
0.0662,-0.0159,1.0439,0.2901,-1.3893,-1.6412,1,0,0
0.1252,-0.0457,1.0801,0.2061,5.1908,1.4656,1,0,0
0.127,-0.051,1.0916,2.3588,24.5114,0.7328,1,0,0
0.0913,-0.0427,1.0525,5.4962,41.1603,-5.0305,1,0,0
0.0676,-0.0698,1.0059,11.3664,51.7939,-9.6183,1,0,0
0.0459,-0.0583,0.9875,16.4885,53.5649,-12.7328,1,0,0
0.0247,-0.0327,1.0051,19.6107,55.9618,-14.4504,1,0,0
0.0388,-0.0403,1.0247,18.5038,59.626,-17.3969,1,0,0
0.0349,-0.0327,1.0215,19.1221,68.7099,-18.313,1,0,0
-0.0007,-0.0288,1.0032,18.2901,71.3588,-16.626,1,0,0
-0.0244,0.001,1.0022,15.2061,71.145,-10.145,1,0,0
-0.0498,-0.0164,1.0132,9.7176,60.145,-1.687,1,0,0
-0.0364,0.0178,1.0547,2.855,53.9389,3.7099,1,0,0
-0.0366,0.0344,1.0696,-7.2061,46.7634,6.0382,1,0,0
-0.1294,0.0129,1.0466,-14.9618,49.8931,4.0382,1,0,0
-0.0637,0.0061,1.0544,-24.5038,51.5725,-6.2901,1,0,0
-0.1472,-0.0081,0.9741,-22.3206,41.9084,-13.8626,1,0,0
-0.1431,-0.0698,0.9729,-10.5573,25.9313,-10.2901,1,0,0
-0.0801,-0.0369,0.9937,-4.4351,10.9695,-8.2061,1,0,0
-0.0256,-0.0762,1.0542,-1.7328,13.3282,-9.0382,1,0,0
-0.0781,-0.0461,1.021,-0.6183,12.9313,-8.916,1,0,0
-0.1292,-0.0391,0.9893,0.4962,4.1603,-6.9847,1,0,0
-0.1548,-0.0271,0.9749,2.4656,-5.3206,-6.8244,1,0,0
-0.1582,0.0227,0.9758,2.374,-18.0382,-7.2519,1,0,0
-0.137,-0.0146,1.0217,-1.7939,-31.9924,1.1756,1,0,0
-0.1482,-0.0073,1.0193,-1.9008,-41.7939,3.7328,1,0,0
-0.1594,0.0222,1.0037,-4.5573,-54.6794,2.145,1,0,0
-0.1216,0.0283,1.019,-8.313,-65.458,2.4427,1,0,0
-0.0288,-0.0044,1.0422,-13.3359,-69.1145,5.4427,1,0,0
0.0054,-0.0601,1.0381,-13.084,-62.2595,4.9389,1,0,0
0.0125,-0.0413,1.0356,-11.4351,-56.3893,4.8244,1,0,0
0.0359,-0.063,1.0481,-10.771,-49.9542,6.6031,1,0,0
0.0183,-0.063,1.0364,-8.6031,-42.3282,7.626,1,0,0
-0.0073,-0.0481,1.0181,-5.3511,-37.0611,4.8626,1,0,0
-0.0012,-0.0366,1.0261,-2.9466,-33.2901,2.1221,1,0,0
0.0437,-0.0442,1.0547,-3.3588,-27.6718,5.7023,1,0,0
0.0513,-0.0627,1.0483,-0.5496,-18.1832,7.313,1,0,0
0.0098,-0.0315,1.0249,2.0076,-13.7023,5.458,1,0,0
0.0327,-0.0286,1.0493,0.8015,-10.3664,4.5267,1,0,0
0.0098,-0.0305,1.0354,0.1221,-9.855,2.3817,1,0,0
0.0212,-0.0286,1.041,0.458,-9.8473,0.8015,1,0,0
0.0427,-0.0244,1.0574,-0.4351,-6.7481,0.2519,1,0,0
0.0444,-0.0354,1.0618,-2.1221,-0.7863,-0.9389,1,0,0
0.0283,-0.0378,1.0339,-4.1756,0.626,-0.2061,1,0,0
0.0554,-0.051,1.0381,-4.5649,1.9542,2.2748,1,0,0
0.0938,-0.0542,1.0452,-3.313,7.4275,3.7557,1,0,0
0.1143,-0.0698,1.0747,-3.2748,20.6641,6.9237,1,0,0
0.0393,-0.0554,1.0557,-3.4656,31.5878,7.7405,1,0,0
0.0024,-0.0442,1.032,-3.5267,34.0916,5.0763,1,0,0
-0.0374,-0.0488,0.989,-2.7023,30.3282,6.0305,1,0,0
-0.0229,-0.0203,1.0308,-0.7176,28.3359,5.8473,1,0,0
-0.0112,-0.0269,1.0845,-2.4275,40.8779,3.7939,1,0,0
-0.0852,-0.021,1.0198,-2.1374,45.8473,-3.2443,1,0,0
-0.095,-0.0298,0.96,0.0076,39.8321,-8.1679,1,0,0
-0.064,-0.0371,0.9675,1.7176,30.4656,-10.0534,1,0,0
-0.0193,-0.0562,1.0159,1.5115,21.3359,-9.0,1,0,0
0.0471,-0.0535,1.0378,-1.3206,20.6718,-6.374,1,0,0
0.0234,-0.054,1.0369,-4.8931,22.4809,4.1908,1,0,0
-0.0525,-0.062,0.9929,-5.0,17.7099,8.1145,1,0,0
-0.0959,-0.0439,0.9556,-3.2595,6.9618,5.7176,1,0,0
-0.1104,-0.0317,0.9771,-1.7557,-2.6031,4.1832,1,0,0
-0.123,-0.0212,0.9919,-1.374,-16.9084,1.2061,1,0,0
-0.1165,-0.0176,1.0161,0.2137,-30.3893,1.4885,1,0,0
-0.1155,0.0059,1.0303,-1.9695,-42.5191,4.4885,1,0,0
-0.1138,0.0264,1.0505,-8.0076,-52.7328,2.7557,1,0,0
-0.0549,-0.0166,1.0466,-15.084,-66.4428,2.9008,1,0,0
0.0457,-0.0361,1.0422,-18.0076,-72.1679,6.7328,1,0,0
0.0967,-0.0754,1.071,-17.8855,-65.2824,11.5496,1,0,0
0.1033,-0.0762,1.0513,-14.9847,-52.084,12.6336,1,0,0
0.1133,-0.1021,1.0598,-10.8855,-34.9008,12.0916,1,0,0
0.1226,-0.1089,1.0442,-3.9847,-16.7557,9.626,1,0,0
0.0676,-0.0808,1.0217,2.7023,-0.5344,8.8092,1,0,0
0.0381,-0.0625,1.0476,4.626,10.7863,8.1603,1,0,0
0.0334,-0.042,1.0566,5.4656,20.9313,4.6718,0,0,0
0.022,-0.0481,1.0525,6.9237,29.5725,1.8168,0,0,0
0.0374,-0.0569,1.0522,9.2214,37.4427,-0.4351,0,0,0
-0.0149,-0.0371,1.0149,10.6489,38.9618,-3.1985,0,0,0
-0.0374,-0.0261,0.9976,8.7252,32.4962,-4.9695,0,0,0
-0.0173,-0.0369,0.9985,6.0,21.2061,-5.542,0,0,0
0.0042,-0.0466,1.0286,4.5344,16.6947,-0.9542,0,0,0
-0.0444,-0.0303,1.0042,3.4656,10.771,1.5802,0,0,0
-0.0627,-0.0237,0.9924,1.8931,1.3206,2.8168,0,0,0
-0.0559,-0.0315,0.991,0.5725,-8.0,2.7328,0,0,0
-0.041,-0.0291,1.0181,0.3664,-14.2214,2.6641,0,0,0
-0.064,0.0027,1.042,-2.9237,-19.916,1.5038,0,0,0
-0.1106,0.0117,1.0261,-8.5649,-33.0153,-0.7863,0,0,0
-0.0671,0.0181,1.0374,-14.3511,-48.0992,-1.5802,0,0,0
0.0051,-0.0139,1.0505,-20.0,-58.4962,3.2519,0,0,0
0.0701,-0.0471,1.053,-21.2366,-60.2443,5.4198,0,0,0
0.1313,-0.0803,1.0635,-20.1679,-49.4046,7.1832,0,0,0
0.136,-0.1028,1.0291,-15.3969,-35.1603,6.626,0,0,0
0.1799,-0.1279,1.0295,-7.4046,-17.4198,7.0458,0,0,0
0.1692,-0.1077,1.0325,-1.5725,3.2595,10.0611,0,0,0
0.165,-0.0911,1.042,4.0534,28.4885,9.1832,0,0,0
0.0974,-0.0906,1.0142,10.7786,51.771,5.4427,0,0,0
0.0393,-0.0698,1.0063,18.0382,68.3206,-1.7863,0,0,0
-0.0186,-0.0449,0.9856,21.8092,73.5802,-4.7252,0,0,0
-0.0774,-0.0249,0.9807,23.7176,62.2977,-4.0611,0,0,0
-0.0886,-0.0012,1.0146,21.9618,45.3817,-3.3359,0,0,0
-0.0957,0.0288,1.0481,14.5496,31.3282,-4.542,0,0,0
-0.0879,0.04,1.0564,4.3435,16.4046,-3.313,0,0,0
-0.0879,0.0063,1.0417,-2.6183,1.542,0.1298,0,0,0
-0.0776,0.0034,1.0247,-5.5878,-10.3817,-0.2519,0,0,0
-0.0857,0.0032,1.0176,-7.5649,-20.7786,-0.4962,0,0,0
-0.1116,0.0059,1.0168,-11.2595,-33.8473,-0.8092,0,0,0
-0.0723,0.0061,1.033,-13.3359,-44.4122,-3.4962,0,0,0
0.0137,-0.0237,1.0588,-17.0305,-45.8168,-6.1679,0,0,0
0.1069,-0.0564,1.0652,-16.8473,-38.4198,-7.2672,0,0,0
0.1604,-0.0972,1.0632,-14.5725,-20.2061,0.1298,0,0,0
0.1028,-0.0989,0.9919,-8.5344,-3.9237,1.313,0,0,0
0.0671,-0.0867,0.9875,-1.2901,7.5038,0.6412,0,0,0
0.0408,-0.0759,1.0039,2.7939,15.0305,-0.0382,0,0,0
0.0095,-0.0686,0.9993,4.9237,17.3893,-1.0153,0,0,0
0.0093,-0.0479,1.0256,6.4198,15.2901,-0.6107,0,0,0
-0.0066,-0.0364,1.0581,4.7023,13.8015,-1.0382,0,0,0
-0.0251,-0.0188,1.0513,2.1145,11.1679,-2.374,0,0,0
-0.0303,-0.0161,1.0281,-0.2214,5.5573,-3.2824,0,0,0
-0.0305,-0.0222,1.0205,-1.5802,-2.3435,-3.0992,0,0,0
-0.0247,-0.0288,1.0261,-2.4351,-10.2061,-2.6031,0,0,0
-0.0583,-0.0305,1.0298,-3.2366,-19.7481,-1.8015,0,0,0
-0.0674,0.0012,1.042,-6.3511,-36.6794,-2.2061,0,0,0
-0.0342,-0.0125,1.0366,-12.7328,-52.2366,-1.1145,0,0,0
0.0173,-0.0195,1.0452,-15.7252,-58.9008,0.4198,0,0,0
0.1265,-0.0571,1.0718,-18.374,-49.8779,2.687,0,0,0
0.1763,-0.0657,1.0754,-14.4275,-21.7023,4.3282,0,0,0
0.0969,-0.0798,1.0022,-8.3588,7.2061,0.9924,0,0,0
0.0613,-0.0911,0.9575,1.0611,21.1069,-6.084,0,0,0
0.0972,-0.0886,1.0122,6.9237,34.0,-7.0305,0,0,0
0.0918,-0.0947,1.0308,10.8397,51.2672,-4.0992,0,0,0
0.0232,-0.0635,0.9836,15.7099,56.2748,-6.1985,0,0,0
0.0237,-0.0571,1.0085,15.6489,50.4504,-4.5649,0,0,0
-0.0022,-0.0288,1.0488,10.9237,39.3435,-0.4809,0,0,0
-0.0156,-0.0183,1.0542,2.4733,24.9771,2.9237,0,0,0
-0.0127,-0.0037,1.0461,-5.0611,14.0305,8.5496,0,0,0
-0.0698,-0.0151,1.0205,-10.2901,4.9847,10.7481,0,0,0
-0.0745,-0.0193,1.0103,-11.8779,-5.1832,7.8855,0,0,0
-0.064,-0.0383,1.02,-10.7252,-13.3969,6.7634,0,0,0
-0.0488,-0.0217,1.0444,-10.1069,-21.4122,5.2061,0,0,0
-0.0032,-0.0181,1.0852,-15.8168,-26.374,5.3511,0,0,0
0.0537,-0.0254,1.0723,-22.0382,-26.1832,9.5344,0,0,0
0.0447,-0.0481,1.0393,-27.4733,-24.1069,15.771,0,0,0
0.1035,-0.1094,1.0337,-27.6565,-18.2748,23.1679,0,0,0
0.1025,-0.1086,1.0081,-23.9237,-11.2443,28.9008,0,0,0
0.074,-0.1211,1.0056,-20.3588,-6.3969,33.6031,0,0,0
0.0276,-0.1018,0.9756,-17.0305,-7.3588,34.3053,0,0,0
0.02,-0.0908,0.9841,-12.7557,-10.2595,33.0611,0,0,0
0.0139,-0.0693,1.0042,-11.9847,-10.6183,35.1145,0,0,0
-0.0107,-0.0718,1.0193,-10.4809,-12.542,37.1069,0,0,0
0.0076,-0.0295,1.0352,-10.1679,-11.3664,35.5496,0,0,0
-0.0049,-0.0452,1.0608,-11.4046,-12.7481,37.4733,0,0,0
0.0498,-0.0449,1.0803,-14.9618,-11.1145,39.374,0,0,0
0.0344,-0.064,1.0876,-17.1221,-7.6718,35.5115,0,0,0
0.0259,-0.0796,1.0466,-18.7939,-6.4809,30.6641,0,0,0
0.0537,-0.1067,1.0337,-17.5191,-6.1603,26.0916,0,0,0
0.0339,-0.082,1.0286,-14.1985,-4.7252,21.7023,0,0,0
0.0591,-0.1055,1.0752,-15.0687,0.145,22.916,0,0,0
0.0693,-0.083,1.0596,-16.5114,6.5267,26.229,0,0,0
0.0349,-0.1064,1.0598,-18.6183,11.2748,29.4656,0,0,0
0.0173,-0.0889,1.0081,-20.1679,9.7099,28.6336,0,0,0
0.0027,-0.1125,1.0278,-20.7176,8.8321,27.9924,0,0,0
-0.0134,-0.1123,0.9819,-19.3359,5.5725,22.9924,0,0,0
-0.0098,-0.124,0.9814,-15.5344,4.9847,18.4962,0,0,0
0.0168,-0.0894,0.9839,-11.7328,5.6489,16.6031,0,0,0
0.0007,-0.124,1.0232,-11.9771,6.7328,19.8397,0,0,0
-0.0366,-0.103,0.9927,-11.9847,2.855,14.458,0,0,0
-0.0081,-0.1208,1.0029,-10.6565,0.7328,10.2137,0,0,0
-0.0125,-0.1428,0.9814,-7.2748,0.542,6.3511,0,0,0
-0.0381,-0.1348,0.9695,-1.2366,-0.2214,1.2366,0,0,0
-0.0359,-0.1162,0.9683,2.9084,1.9695,-3.9847,0,0,0
-0.0361,-0.1287,0.9883,6.3969,2.8321,-11.2137,0,0,0
-0.0215,-0.1223,0.999,10.1527,2.374,-17.7099,0,0,0
0.0251,-0.113,1.0205,11.1908,3.7786,-21.1908,0,0,0
0.0298,-0.1257,1.0151,11.6565,5.3435,-24.2366,0,0,0
0.0005,-0.1338,0.9922,14.1908,2.3969,-26.5496,0,0,0
-0.019,-0.1445,0.97,19.9771,-2.4351,-32.0916,0,0,0
-0.0291,-0.1399,0.9666,29.4351,-4.7099,-42.4962,0,0,0
-0.0027,-0.115,0.9678,39.3664,-2.3206,-51.3664,0,0,0
0.0393,-0.0298,0.9797,47.9313,4.2519,-52.6107,0,0,0
0.0496,-0.043,1.0654,44.2366,11.0992,-36.6031,0,0,0
0.0093,0.0107,1.0684,38.9008,11.3206,-29.9542,0,0,0
0.0518,0.002,1.1877,23.1527,13.7023,-22.1985,0,0,0
0.0085,-0.0034,1.1614,3.7786,10.687,-21.5038,0,0,0
0.0112,-0.0535,1.084,-5.3206,-0.2137,-16.4198,0,0,0
0.0349,-0.0977,1.0476,-7.1145,-3.7481,-14.7634,0,0,0
-0.0315,-0.1116,1.0081,0.5496,1.9389,-19.8626,0,0,0
-0.062,-0.0691,0.9893,8.2137,8.5878,-30.1374,0,0,0
-0.0649,-0.0522,1.0059,12.084,11.9084,-35.7405,0,0,0
-0.054,-0.0647,0.999,14.8473,7.3435,-36.0611,0,0,0
-0.0059,-0.0605,1.0142,16.3435,0.626,-35.0534,0,0,0
0.0559,-0.0676,1.0688,13.1298,0.0305,-36.9237,0,0,0
0.0645,-0.0447,1.0557,9.6565,4.687,-39.916,0,0,0
0.085,-0.0745,1.0657,4.1908,9.9542,-35.1221,0,0,0
0.0349,-0.0925,1.0129,5.6641,11.4198,-31.916,0,0,0
0.0161,-0.0596,1.0146,8.0229,10.7939,-28.5267,0,0,0
0.0044,-0.0422,1.0305,8.7023,9.6489,-26.374,0,0,0
-0.0105,-0.0269,1.0203,6.7557,5.6794,-19.0229,0,0,0
-0.0005,-0.0095,1.0215,2.4351,3.5191,-12.6565,0,0,0
-0.0012,-0.0334,1.0559,-2.6107,1.8931,-1.8626,0,0,0
-0.0156,-0.021,1.0303,-5.9466,-1.2214,-1.0229,0,0,0
0.0122,-0.0298,1.0442,-9.313,-3.2366,2.0534,0,0,0
0.0422,-0.0613,1.0728,-11.3664,-0.9008,7.2672,0,0,0
0.0586,-0.0664,1.061,-10.8702,9.7863,7.6947,0,0,0
-0.0042,-0.0598,1.0049,-9.5878,14.0763,8.1527,0,0,0
0.0247,-0.0603,0.9929,-8.5725,12.9389,11.7863,0,0,0
0.0129,-0.0894,1.0181,-8.6336,14.1298,17.5038,0,0,0
0.009,-0.0156,1.0146,-9.7328,12.6107,18.5954,0,0,0
0.0222,-0.0525,1.0662,-16.229,10.4275,31.2366,0,0,0
0.0125,-0.0188,1.0774,-21.4275,7.0687,38.9084,0,0,0
0.0066,-0.0515,1.1189,-29.8015,6.0534,49.7634,0,0,0
-0.0581,-0.0483,1.0723,-34.8244,3.8321,50.1679,0,0,0
-0.0642,-0.0701,1.0325,-36.9389,0.6183,46.5573,0,0,0
-0.0671,-0.0518,0.9856,-35.6565,-0.9618,34.6031,0,0,0
0.0039,-0.1179,0.9958,-32.5573,-1.7176,38.0992,0,0,0
-0.0015,-0.1284,0.9619,-23.8015,-0.8397,42.2214,0,0,0
0.0374,-0.1467,1.0222,-17.374,3.0076,48.6031,0,0,0
0.0068,-0.1306,1.0476,-11.1221,11.6336,49.8931,0,0,0
-0.0698,-0.0815,1.0425,-10.5573,15.7252,44.4733,0,0,0
-0.1191,-0.0569,1.0117,-13.0992,13.7176,34.1221,0,0,0
-0.0969,-0.0752,0.9917,-15.5802,7.8702,28.8931,0,0,0
-0.032,-0.1167,0.9915,-13.1069,7.4733,24.1908,0,0,0
-0.0361,-0.1284,0.9744,-8.5496,12.2443,21.4198,0,0,0
-0.0842,-0.123,0.9578,-2.3359,12.8397,16.687,0,0,0
-0.0996,-0.0867,0.9785,0.313,10.4504,13.4427,0,0,0
-0.1096,-0.0596,1.0166,-1.5267,7.5038,12.6336,0,0,0
-0.0771,-0.0549,1.0471,-6.3511,5.0611,13.4733,0,0,0
-0.0466,-0.0679,1.0674,-12.2214,4.8244,21.2214,0,0,0
-0.0867,-0.1174,1.0481,-13.0153,1.3893,22.2519,0,0,0
-0.0842,-0.0952,1.0554,-14.0534,-3.1679,18.313,0,0,0
-0.0315,-0.1091,1.0762,-17.3435,-1.6107,17.8626,0,0,0
-0.0496,-0.135,1.0288,-16.7481,-0.6031,19.6794,0,0,0
-0.0405,-0.1243,1.0027,-13.6718,0.6412,17.7405,0,0,0
-0.0623,-0.1409,1.0068,-11.9695,2.9084,16.5191,0,0,0
-0.0974,-0.136,0.9875,-8.0382,1.4656,9.9695,0,0,0
-0.1025,-0.127,0.9912,-4.6794,-1.2137,2.5267,0,0,0
-0.0505,-0.1108,1.0066,-2.8244,-1.0534,3.0229,0,0,0
-0.0479,-0.1187,1.0146,-2.0763,1.4122,10.5038,0,0,0
-0.0752,-0.1099,1.0142,-1.9924,0.9389,14.1374,0,0,0
-0.0779,-0.0774,1.0142,-4.3588,-0.7176,16.4504,0,0,0
-0.0996,-0.0977,1.0325,-6.3969,-1.6947,14.1145,0,0,0
-0.0789,-0.1104,1.022,-6.1985,-0.4809,8.3664,0,0,0
-0.0637,-0.1367,1.01,-3.687,3.9771,3.313,0,0,0
-0.1016,-0.1394,0.9863,0.8473,6.6565,-4.4046,0,0,0
-0.1001,-0.1494,0.9802,5.2443,4.5496,-15.0305,0,0,0
-0.0942,-0.1606,0.9761,11.6031,-1.1603,-25.6718,0,0,0
-0.0728,-0.1672,0.9917,19.1069,-2.145,-39.626,0,0,0
-0.0867,-0.1531,0.9778,28.9466,1.0153,-52.3817,0,0,0
-0.0862,-0.1553,0.9536,40.4275,2.0687,-64.1527,0,0,0
-0.0583,-0.1074,0.9338,52.8855,2.0763,-68.0076,0,0,0
-0.0283,-0.0688,0.9329,61.458,2.687,-61.9389,0,0,0
-0.042,0.0002,0.9807,63.4656,0.4962,-49.7786,0,0,0
-0.064,0.0178,1.1045,52.9466,3.313,-31.1908,0,0,0
-0.136,0.033,1.1467,40.5649,6.6947,-31.6107,0,0,0
-0.1504,0.0613,1.1558,25.2672,2.5344,-43.8397,0,0,0
-0.0923,0.001,1.1472,9.1603,1.3282,-55.0534,0,0,0
-0.1035,-0.0535,1.0652,3.2519,-2.0916,-65.3435,0,0,0
-0.1284,-0.0947,0.98,8.626,-11.4122,-76.6336,0,0,0
-0.0959,-0.0952,0.9431,20.2595,-17.6489,-82.771,0,0,0
-0.0459,-0.0559,0.9456,28.5496,-18.916,-85.4809,0,0,0
-0.0183,-0.0347,1.0046,30.7939,-12.7863,-82.6718,0,0,0
0.0203,-0.0017,1.0381,27.9008,-5.0611,-69.8321,0,0,0
0.0227,-0.0164,1.0654,20.9237,1.855,-50.4733,0,0,0
-0.019,-0.0137,1.0645,15.2443,3.3969,-38.0,0,0,0
-0.0266,-0.0024,1.0613,11.4122,0.5954,-33.5191,0,0,0
-0.0266,-0.0061,1.0625,7.9924,-2.5038,-31.1527,0,0,0
-0.032,0.001,1.0305,5.7252,-4.6947,-29.8473,0,0,0
-0.0427,-0.0295,1.0007,5.7786,-6.1679,-33.2595,0,0,0
-0.0574,-0.0513,0.9563,9.8244,-10.2748,-36.8779,0,0,0
-0.0378,-0.0525,0.9583,16.1908,-13.6718,-36.4351,0,0,0
-0.0437,-0.0291,1.0139,19.4885,-15.3359,-32.8168,0,0,0
-0.0679,0.0127,1.0381,16.8168,-16.1603,-30.5267,0,0,0
-0.0403,0.0195,1.0688,11.3206,-15.8244,-25.6565,0,0,0
-0.0298,0.0479,1.0735,4.2519,-9.9084,-23.2366,0,0,0
0.0032,0.0083,1.0427,2.6641,-3.5878,-26.8015,0,0,0
0.0142,-0.0063,1.0305,5.1832,-0.6794,-27.2977,0,0,0
-0.002,-0.0144,1.0183,6.2366,-5.0687,-25.3359,0,0,0
-0.0034,-0.0195,1.0188,7.4122,-9.0076,-21.5344,0,0,0
-0.0181,-0.0134,1.0396,9.0687,-13.1908,-18.8168,0,0,0
-0.0171,0.0137,1.0435,9.1298,-14.5878,-19.8855,0,0,0
-0.0146,0.0151,1.0427,7.9466,-13.2137,-22.7863,0,0,0
-0.0242,0.012,1.0337,6.9084,-9.6489,-25.8855,0,0,0
-0.0305,0.0151,1.0381,6.9924,-5.3817,-26.6031,0,0,0
-0.0308,0.0188,1.0374,6.3282,-0.687,-25.5878,0,0,0
-0.0254,0.0249,1.0427,7.2214,3.1603,-24.2824,0,0,0
0.0203,0.0408,1.0574,6.2443,6.916,-26.3359,0,0,0
0.0447,0.0273,1.0713,5.9313,11.7863,-28.0611,0,0,0
0.0242,0.0234,1.0532,5.5496,12.374,-26.313,0,0,0
0.0125,-0.0007,1.0308,4.9618,9.2748,-23.4809,0,0,0
-0.0134,-0.0044,1.0085,6.4733,4.6031,-19.6336,0,0,0
-0.0461,0.002,1.0115,10.0687,0.5038,-15.6489,0,0,0
-0.0776,0.0488,1.0256,9.2824,-3.0,-14.6718,0,0,0
-0.0708,0.0476,1.0417,7.8473,-3.7252,-16.0763,0,0,0
-0.0593,0.0417,1.0413,4.916,-2.458,-16.9924,0,0,0
-0.0562,0.0391,1.0254,4.6565,-4.0153,-16.0458,0,0,0
-0.0308,0.0232,1.0371,4.6107,-3.8397,-15.2214,0,0,0
-0.0281,0.033,1.0229,5.9084,-5.8855,-14.8702,0,0,0
-0.012,0.0227,1.03,5.916,-8.1679,-14.0763,0,0,0
-0.0032,0.0352,1.0503,6.3053,-10.8855,-10.9466,0,0,0
0.0198,0.0403,1.0815,1.2061,-8.542,-8.7786,0,0,0
0.01,0.031,1.0415,-3.229,-2.9008,-8.0076,0,0,0
-0.0254,0.0229,1.0085,-3.1145,-3.3664,-5.4198,0,0,0
-0.021,0.0271,1.012,-3.084,-5.0534,-3.542,0,0,0
-0.0178,0.0366,1.0139,-2.7405,-5.8092,-2.2519,0,0,0
0.0117,0.0378,1.0342,-2.9695,-5.145,-1.3817,0,0,0
0.0154,0.0334,1.0415,-2.5573,-1.3817,-0.4427,0,0,0
-0.002,0.0322,1.0454,-2.313,3.7405,-0.0305,0,0,0
-0.0288,0.0371,1.0312,-2.3969,4.3511,-0.687,0,0,0
-0.0325,0.041,1.0378,-3.5725,2.0458,0.1069,0,0,0
0.0081,0.0339,1.0544,-6.4809,2.7023,1.084,0,0,0
0.0256,0.0103,1.0437,-8.9466,8.3435,3.3817,0,0,0
0.0012,0.0027,1.0261,-8.6031,10.9771,6.7176,0,0,0
-0.0098,0.0107,1.0222,-7.8931,9.9313,10.9771,0,0,0
-0.0242,0.0193,1.0398,-9.4733,8.084,16.916,0,0,0
-0.0427,0.0076,1.0286,-12.9008,2.9695,26.8321,0,0,0
0.0176,-0.0083,1.0266,-12.6107,0.5038,38.3282,0,0,0
0.0295,-0.0112,1.0125,-9.9771,1.1374,48.3664,0,0,0
0.0237,-0.0151,1.0234,-8.2595,1.2672,54.1298,0,0,0
-0.0151,-0.0029,1.0024,-3.855,-3.0458,56.4656,0,0,0
-0.0334,0.0212,1.0066,-0.4198,-8.1221,54.1603,0,0,0
-0.0295,0.0349,1.0305,0.8473,-7.2672,49.4198,0,0,0
-0.0754,0.0427,1.0164,1.4122,-7.8855,43.2214,0,0,0
-0.0781,0.0369,1.0059,1.1679,-11.3588,40.3664,0,0,0
-0.0676,0.0391,0.9978,2.1679,-15.6336,39.6107,0,0,0
-0.0276,0.0378,1.0107,3.0229,-19.4733,40.2901,0,0,0
-0.0056,0.0271,1.0269,1.9084,-19.6183,48.458,0,0,0
-0.0029,0.0583,1.0352,0.4733,-22.6489,49.5725,0,0,0
0.0271,0.0579,1.0566,-2.5878,-17.5573,38.0305,0,0,0
0.0532,0.0378,1.0593,-6.1908,-5.9466,27.5649,0,0,0
0.0283,0.0156,1.0378,-5.7557,4.0382,20.7405,0,0,0
0.0149,0.0198,1.0159,-2.1832,5.5573,16.6718,0,0,0
0.0107,0.0269,1.053,-0.3359,7.4809,18.5954,0,0,0
-0.0259,0.0657,1.0732,-2.7634,5.7099,20.1374,0,0,0
-0.0422,0.0732,1.0808,-8.4046,2.5573,19.4046,0,0,0
-0.0627,0.0781,1.0737,-14.0305,-0.6489,16.0916,0,0,0
-0.0474,0.0518,1.0493,-17.3282,-3.3893,14.1298,0,0,0
-0.0027,0.033,1.0291,-16.5954,-2.626,13.5191,0,0,0
0.0164,0.0127,1.0383,-16.6718,2.8931,14.1756,0,0,0
0.0154,0.0051,1.0232,-16.2748,7.7786,10.8473,0,0,0
0.0269,0.0156,1.0315,-17.2824,10.3206,14.7634,0,0,0
0.0066,-0.002,1.051,-18.5573,12.9466,16.3053,0,0,0
-0.0183,0.0142,1.0164,-17.4122,10.5802,13.2519,0,0,0
-0.0129,0.0134,1.0264,-18.145,8.3817,15.1985,0,0,0
-0.0085,0.0208,1.0522,-21.8321,7.8626,22.4427,0,0,0
-0.0527,0.0095,1.0376,-24.6565,4.4962,25.1527,0,0,0
-0.0625,-0.0002,1.0034,-23.4198,-3.4046,20.9466,0,0,0
-0.0596,-0.0112,1.0046,-20.2214,-11.4656,18.2901,0,0,0
0.0085,-0.0271,1.0254,-17.2443,-10.5954,15.084,0,0,0
0.0396,-0.0308,1.0508,-16.3282,-2.855,12.9237,0,0,0
0.01,-0.0396,1.0251,-14.3053,3.1527,12.4885,0,0,0
-0.0125,-0.0364,1.0134,-13.916,0.6794,14.0687,0,0,0
-0.0112,-0.0298,1.0149,-12.6412,-1.6031,14.7863,0,0,0
-0.0229,-0.0217,1.0481,-15.2366,-1.6336,15.2595,0,0,0
-0.0481,0.0034,0.9998,-19.2901,-3.8092,11.687,0,0,0
-0.0098,-0.0413,1.0203,-21.0153,-6.1374,19.0305,0,0,0
-0.0256,-0.0459,1.0125,-17.9313,-9.3893,22.8473,0,0,0
-0.0354,-0.0291,1.0115,-14.687,-11.4656,19.4885,0,0,0
0.011,-0.0396,1.032,-13.3282,-8.1069,13.8626,0,0,0
0.0105,-0.0449,1.0125,-11.0076,0.1374,9.3664,0,0,0
-0.0339,-0.0759,0.9692,-6.0458,2.5725,5.8931,0,0,0
-0.0544,-0.0571,0.9604,0.1221,-1.6947,0.7863,0,0,0
-0.0112,-0.0552,1.0259,3.4122,-1.1527,-4.2748,0,0,0
-0.0122,-0.0474,1.0334,3.9847,0.5649,-7.0534,0,0,0
-0.0259,-0.0535,1.01,5.3893,-1.7252,-10.7481,0,0,0
0.0303,-0.0627,1.0266,7.9695,-2.3893,-10.3435,0,0,0
0.0313,-0.051,1.0627,8.1908,2.5573,-9.0534,0,0,0
0.0049,-0.0251,1.0676,6.1679,6.8015,-12.1756,0,0,0
0.0159,-0.0017,1.0696,2.9313,7.5496,-9.2748,0,0,0
-0.0122,-0.0359,1.0681,-1.6947,4.6412,0.2595,0,0,0
-0.0029,-0.0295,1.0581,-3.0687,3.4885,-0.8931,0,0,0
-0.0139,-0.0227,1.0796,-4.5802,11.7863,-4.3969,0,0,0
-0.0271,-0.031,1.0488,-5.6947,18.2137,-9.4275,0,0,0
-0.0359,-0.0479,0.9934,-2.9084,19.0076,-14.2366,0,0,0
0.0139,-0.0737,0.9958,0.9618,19.5954,-17.855,0,0,0
-0.0017,-0.0715,0.9839,4.6489,21.7786,-21.1145,0,0,0
-0.0017,-0.0657,0.9983,8.1221,23.5344,-25.145,0,0,0
-0.0181,-0.0583,1.0037,11.4656,28.1679,-30.3893,0,0,0
-0.0127,-0.0059,1.0254,11.0153,30.3664,-29.7328,0,0,0
-0.0178,-0.0242,1.0442,4.4427,33.0611,-15.8779,0,0,0
-0.0903,-0.0408,1.0024,4.2366,31.0763,-11.9847,0,0,0
-0.1016,-0.012,1.0303,3.2137,25.8092,-14.5954,0,0,0
-0.0991,-0.002,1.0503,-2.1908,19.7252,-14.0382,0,0,0
-0.0898,-0.0068,1.0312,-6.0458,12.0305,-12.1756,0,0,0
-0.0852,-0.02,1.0295,-7.4198,6.0153,-12.8092,0,0,0
-0.0146,-0.0461,1.0405,-8.3206,8.5573,-15.3817,0,0,0
-0.052,-0.0642,1.0103,-6.0382,15.5191,-20.5038,0,0,0
-0.0581,-0.0388,0.9978,-5.145,16.0611,-17.771,0,0,0
-0.0608,-0.0581,1.0117,-4.3435,12.5573,-7.313,0,0,0
-0.083,-0.0461,1.0232,-3.9466,5.458,5.0229,0,0,0
-0.0935,-0.0332,1.031,-4.0916,-1.7405,9.5496,0,0,0
-0.0503,-0.0166,1.0779,-9.626,-1.084,15.6489,0,0,0
-0.0916,-0.0283,1.0552,-13.4351,0.2901,15.1679,0,0,0
-0.1079,-0.0283,1.0146,-13.2901,-3.3893,11.6794,0,0,0
-0.1045,-0.0386,1.0203,-13.0763,-6.0611,9.0076,0,0,0
-0.0857,-0.0596,1.0076,-11.3969,-8.3511,5.3817,0,0,0
-0.073,-0.0696,1.0098,-8.5878,-7.0076,3.0382,0,0,0
-0.0518,-0.0605,1.0217,-5.3053,-2.7023,3.1756,0,0,0
-0.0754,-0.0427,1.0149,-3.8931,1.0382,2.8397,0,0,0
-0.0793,-0.0325,1.03,-4.8779,1.0305,4.4198,0,0,0
-0.0881,-0.0269,1.0361,-7.4733,-0.3664,3.8702,0,0,0
-0.0691,-0.0129,1.0483,-10.0611,-2.6031,6.5267,0,0,0
-0.0769,-0.0437,1.0378,-13.1221,-2.5725,8.771,0,0,0
-0.0847,-0.0667,0.9866,-11.0382,-4.7252,4.5038,0,0,0
-0.064,-0.0852,0.9941,-5.6412,-4.1527,2.5802,0,0,0
-0.0559,-0.0601,1.033,-1.7634,-2.5878,3.1069,0,0,0
-0.0476,-0.0498,1.0815,-4.0916,1.313,3.0687,0,0,0
-0.0681,-0.0498,1.0684,-6.0687,2.855,0.0687,0,0,0
-0.0608,-0.0356,1.052,-7.084,1.9924,0.626,0,0,0
-0.0662,-0.0542,1.0525,-9.4656,0.9389,5.2672,0,0,0
-0.0637,-0.0381,1.0474,-11.0534,1.6412,6.9924,0,0,0
-0.0769,-0.0354,1.0557,-15.8702,8.3206,5.3511,0,0,0
-0.0779,-0.0696,1.0137,-16.0611,10.687,5.6183,0,0,0
-0.103,-0.0625,0.9761,-14.3206,8.5649,6.0,0,0,0
-0.0867,-0.0698,1.012,-10.8855,7.5191,4.4351,0,0,0
-0.0034,-0.0415,1.0601,-15.458,14.6107,12.1374,0,0,0
-0.1104,-0.0715,0.9917,-19.6031,18.9618,14.0916,0,0,0
-0.1377,-0.095,0.9668,-13.8397,16.5038,8.1298,0,0,0
-0.1096,-0.093,0.9797,-11.3893,11.2901,6.084,0,0,0
-0.1089,-0.1104,1.0044,-8.2519,8.6947,4.8473,0,0,0
-0.1128,-0.0662,1.02,-6.1527,8.2061,1.0305,0,0,0
-0.1208,-0.0874,1.01,-4.9847,3.4351,-0.3511,0,0,0
-0.0999,-0.095,1.0146,-3.9084,0.5878,-0.7023,0,0,0
-0.116,-0.0889,1.0073,-2.1527,-1.8244,-2.626,0,0,0
-0.0664,-0.0864,1.0586,-1.5115,2.9084,-4.9313,0,0,0
-0.0803,-0.0698,1.0425,-1.6565,11.9313,-8.9771,0,0,0
-0.0535,-0.0786,1.0327,-4.9237,14.3588,-1.9924,0,0,0
-0.0889,-0.0916,1.0122,-7.1985,17.0305,1.3664,0,0,0
-0.1116,-0.1033,0.9856,-5.7252,17.771,0.2519,0,0,0
-0.1294,-0.0964,0.9802,-3.9924,14.9542,0.1221,0,0,0
-0.1448,-0.0884,0.9766,-1.7023,6.3435,-0.458,0,0,0
-0.1238,-0.104,1.021,1.0916,-0.5573,-0.6565,0,0,0
-0.114,-0.085,1.0356,3.3893,-2.3511,-1.0992,0,0,0
-0.1123,-0.053,1.0334,0.4351,-2.7176,0.1221,0,0,0
-0.1436,-0.0723,1.0244,-1.6336,-4.626,-0.5573,0,0,0
-0.1355,-0.0869,0.9993,-0.916,-8.6107,-2.8092,0,0,0
-0.0869,-0.062,1.0,0.6641,-9.2595,-0.7099,0,0,0
-0.0854,-0.0989,1.0122,0.7786,-4.8015,4.313,0,0,0
-0.1321,-0.0935,0.978,4.6947,-3.7481,0.6412,0,0,0
-0.1243,-0.0947,0.9675,9.0229,-6.1985,-0.5649,0,0,0
-0.1025,-0.1152,0.9641,15.5038,-8.2519,-1.8321,0,0,0
-0.1191,-0.1079,0.958,24.1069,-10.6718,-2.3282,0,0,0
-0.1543,-0.0369,0.9775,26.3282,-17.3206,-4.6794,0,0,0
-0.1343,-0.0291,1.0647,22.4733,-19.3893,-11.2519,0,0,0
-0.1086,0.0056,1.0691,17.0153,-25.7939,-14.1832,0,0,0
-0.0388,0.0029,1.0991,7.3435,-26.6947,-2.6336,0,0,0
-0.0789,-0.0339,1.0757,-1.2443,-24.8397,5.1069,0,0,0
-0.1113,-0.0369,1.0237,-2.229,-27.6641,3.7557,0,0,0
-0.0916,-0.054,1.002,-1.3511,-29.4656,3.7863,0,0,0
-0.0632,-0.0547,1.0217,-1.7481,-28.145,5.0,0,0,0
-0.0378,-0.0676,1.0508,-2.7252,-20.7634,4.8779,0,0,0
-0.0601,-0.071,1.0105,-1.0992,-16.5954,1.6336,0,0,0
-0.0547,-0.0825,0.9963,1.4885,-16.8702,1.4351,0,0,0
-0.052,-0.0845,1.0022,4.7252,-18.7176,1.5573,0,0,0
-0.0618,-0.0645,1.0076,7.5038,-21.7863,1.0687,0,0,0
-0.0547,-0.0437,1.0259,8.2595,-26.0611,0.5649,0,0,0
-0.0344,-0.0198,1.0667,3.1527,-26.9847,4.7863,0,0,0
-0.0618,-0.0049,1.0664,-2.9466,-26.687,6.6107,0,0,0
-0.0627,-0.0161,1.054,-9.5954,-28.9771,4.9313,0,0,0
-0.0447,-0.0266,1.0269,-11.916,-31.0916,4.2214,0,0,0
0.0134,-0.0701,1.0542,-13.3435,-28.4198,7.7405,0,0,0
0.0229,-0.0786,1.0305,-12.3664,-21.5114,7.6641,0,0,0
0.0083,-0.0896,1.0078,-7.9771,-17.5496,5.4962,0,0,0
0.0154,-0.0796,1.0188,-3.6183,-14.6031,3.5496,0,0,0
0.0129,-0.0696,1.0466,-1.9084,-12.1374,4.374,0,0,0
-0.0066,-0.0657,1.0461,-1.9924,-11.3664,5.1832,0,0,0
-0.019,-0.0613,1.0281,-0.687,-11.2901,2.3817,0,0,0
-0.0068,-0.0491,1.0396,-0.6489,-10.1298,1.4351,0,0,0
-0.0071,-0.0483,1.0547,-0.7863,-7.7252,1.084,0,0,0
-0.0115,-0.0398,1.0488,-1.6565,-7.8397,0.2061,0,0,0
0.0005,-0.0405,1.0608,-4.2595,-7.1832,1.2824,0,0,0
-0.0076,-0.0469,1.04,-6.1679,-9.5191,2.3511,0,0,0
0.0083,-0.0586,1.033,-6.3206,-11.7634,1.5496,0,0,0
0.0308,-0.0671,1.0386,-5.2519,-11.1221,0.1298,0,0,0
0.0452,-0.0569,1.031,-4.7405,-6.8244,-0.374,0,0,0
0.0154,-0.0642,1.021,-4.313,-4.1679,0.8321,0,0,0
-0.0002,-0.0571,1.0071,-2.4733,-4.0382,-0.0076,0,0,0
0.0222,-0.0466,1.0522,-2.5344,0.8397,0.855,0,0,0
-0.0015,-0.041,1.0571,-5.0534,5.1527,-1.1298,0,0,0
0.01,-0.0432,1.0479,-6.4046,6.0,-1.4885,0,0,0
0.0378,-0.0593,1.0537,-7.8702,6.3969,0.4275,0,0,0
0.0425,-0.0676,1.0522,-10.0992,9.0229,2.1679,0,0,0
0.0222,-0.0759,1.0256,-11.1527,10.1069,4.3588,0,0,0
0.0176,-0.0759,1.0105,-10.8244,11.3817,5.2748,0,0,0
0.0161,-0.0757,1.0166,-8.6489,15.1527,5.084,0,0,0
0.0544,-0.0803,1.0652,-11.1679,25.2443,7.2366,0,0,0
0.0364,-0.0745,1.0488,-12.1908,34.7863,6.3206,0,0,0
0.0022,-0.0952,1.0234,-12.7176,38.8397,7.313,0,0,0
-0.0249,-0.0664,1.0212,-11.542,37.3817,7.9924,0,0,0
-0.0466,-0.0857,1.0266,-12.4046,37.9466,8.7405,0,0,0
-0.0886,-0.061,1.0071,-12.8168,33.2214,6.313,0,0,0
-0.0776,-0.0825,1.0046,-12.7328,26.9008,6.9084,0,0,0
-0.0945,-0.0972,0.9871,-9.8397,19.1069,4.5802,0,0,0
-0.0986,-0.0813,0.9885,-7.2672,12.7252,2.8168,0,0,0
-0.1018,-0.0547,1.0232,-9.2901,8.687,-0.5115,0,0,0
-0.0815,-0.0764,1.0273,-11.542,5.8626,-3.8321,0,0,0
-0.05,-0.0774,1.0359,-11.626,10.8397,-6.2901,0,0,0
-0.0325,-0.0769,1.0283,-14.0153,17.6718,-4.2443,0,0,0
-0.0461,-0.1055,1.012,-12.8855,22.7252,-2.0076,0,0,0
-0.0581,-0.1064,0.9832,-9.2366,24.2824,-5.1069,0,0,0
-0.0669,-0.0977,1.0256,-9.084,24.1069,-5.6947,0,0,0
-0.0815,-0.0984,1.0044,-4.3282,19.9389,-4.9466,0,0,0
-0.0984,-0.092,1.0093,-5.1985,14.1298,-1.458,0,0,0
-0.1145,-0.0923,1.0024,-5.9695,6.8168,-3.0382,0,0,0
-0.0652,-0.0884,1.0488,-9.2595,5.6336,2.5802,0,0,0
-0.0874,-0.1025,1.0359,-15.3511,7.2672,0.7328,0,0,0
-0.084,-0.1274,0.9812,-11.5344,0.8092,0.0076,0,0,0
-0.0747,-0.1333,0.9922,-7.458,-4.2824,2.4885,0,0,0
-0.062,-0.1367,1.0129,-2.6947,-4.1908,0.7481,0,0,0
-0.0862,-0.1194,1.0117,0.2214,-2.9008,-2.5115,0,0,0
-0.0679,-0.0872,1.0161,0.2061,-2.5802,-1.145,0,0,0
-0.0593,-0.1228,1.0435,-1.1145,-0.9237,5.2519,0,0,0
-0.0906,-0.1018,1.0137,-0.6489,-1.4198,2.9313,0,0,0
-0.0879,-0.0994,1.0273,-1.0,-2.542,3.2672,0,0,0
-0.0857,-0.0938,1.0513,-2.7099,-0.7481,3.4198,0,0,0
-0.0732,-0.0916,1.0374,-4.4656,1.8244,4.8855,0,0,0
-0.1042,-0.1072,1.0063,-5.0076,1.1527,4.1145,0,0,0
-0.092,-0.1206,0.9912,-2.1527,-1.4351,1.5573,0,0,0
-0.0784,-0.1228,1.0002,0.4351,0.3053,-1.0,0,0,0
-0.0906,-0.1099,0.9958,1.5038,0.4198,-2.1679,0,0,0
-0.0874,-0.1094,0.9993,2.6489,-1.4351,-1.8626,0,0,0
-0.0615,-0.0903,1.0283,2.6718,-2.2977,0.6718,0,0,0
-0.0576,-0.0886,1.0928,-1.5725,2.8015,5.6641,0,0,0
-0.113,-0.0876,1.0515,-5.2061,6.2137,2.1756,0,0,0
-0.1155,-0.0957,1.0171,-5.2137,4.4275,-0.0153,0,0,0
-0.1125,-0.0996,1.0063,-4.7023,-0.3588,-1.4504,0,0,0
-0.0867,-0.1213,1.0112,-3.3664,-2.0992,-0.313,0,0,0
-0.0935,-0.1123,1.0146,-0.8702,-2.6336,-0.3893,0,0,0
-0.0688,-0.1021,1.0286,1.7176,0.4427,-0.1145,0,0,0
-0.0781,-0.0889,1.0464,0.3206,7.3359,1.2137,0,0,0
-0.0911,-0.0984,1.0398,0.0992,13.1527,-2.5344,0,0,0
-0.073,-0.1047,1.0396,-0.8321,15.9237,-2.3435,0,0,0
-0.0881,-0.1255,1.011,-0.3969,14.5191,-1.4122,0,0,0
-0.0725,-0.1067,1.0139,0.0076,11.8321,0.9466,0,0,0
-0.0732,-0.1025,1.0898,-2.4809,19.8168,4.7252,0,0,0
-0.1345,-0.054,1.0762,-8.6336,28.4885,0.2214,0,0,0
-0.1296,-0.0735,1.0774,-12.1756,44.9847,-2.542,0,0,0
-0.1626,-0.0864,1.0066,-12.6183,54.2748,-8.9313,0,0,0
-0.1477,-0.1223,0.9614,-7.6794,49.2137,-11.5725,0,0,0
-0.1438,-0.1455,0.9482,-3.4351,35.5649,-9.7939,0,0,0
-0.1509,-0.1343,0.9592,-1.2366,17.9084,-7.5115,0,0,0
-0.1582,-0.1218,0.9614,-1.3969,2.313,-5.7176,0,0,0
-0.1299,-0.1118,0.9902,-2.4809,-8.1679,-1.0305,0,0,0
-0.1091,-0.1218,1.0037,-4.5878,-10.3282,4.8779,0,0,0
-0.1111,-0.1204,0.9805,-5.3206,-11.0916,7.3206,0,0,0
-0.1196,-0.1396,0.9731,-2.9618,-8.7099,6.4504,0,0,0
-0.0908,-0.104,1.0125,-2.9847,-4.0,13.9313,0,0,0
-0.1648,-0.126,0.9858,-2.9618,-1.7634,14.8931,0,0,0
-0.1931,-0.103,0.9758,0.3282,-4.3664,8.7634,0,0,0
-0.1724,-0.106,1.0161,0.4733,-4.9389,5.084,0,0,0
-0.1624,-0.1196,1.0188,1.542,-6.1374,1.8168,0,0,0
-0.1567,-0.1223,1.0107,3.1832,-9.8015,-1.1221,0,0,0
-0.1389,-0.125,1.0132,5.8168,-13.8779,-2.8855,0,0,0
-0.1377,-0.1255,1.0032,8.4656,-16.5725,-4.4733,0,0,0
-0.1216,-0.1135,0.9976,11.1985,-17.6183,-5.6565,0,0,0
-0.0923,-0.0925,1.0002,12.0611,-18.2824,-1.9466,0,0,0
-0.073,-0.1157,1.0254,10.6489,-13.2214,6.3053,0,0,0
-0.1379,-0.0991,1.0059,10.9771,-14.0,4.7252,0,0,0
-0.1208,-0.0769,0.9937,10.2748,-23.916,4.2366,0,0,0
-0.103,-0.1182,0.9788,13.3359,-33.1756,10.4504,0,0,0
-0.0901,-0.0735,1.053,10.1832,-36.4504,11.4046,0,0,0
-0.1367,-0.0793,1.0229,10.2519,-35.4046,9.6947,0,0,0
-0.1321,-0.0864,0.9937,14.855,-39.2519,5.3435,0,0,0
-0.0979,-0.0872,1.0127,17.3282,-43.4198,3.4962,0,0,0
-0.0825,-0.0984,0.9883,21.8015,-44.2824,2.6031,0,0,0
-0.0608,-0.0527,1.0127,23.7863,-42.7328,4.0534,0,0,0
-0.0474,-0.0439,1.0994,17.3435,-31.1069,1.9695,0,0,0
-0.0698,-0.0325,1.1047,10.1145,-23.6718,-1.916,0,0,0
-0.0808,-0.043,1.062,5.3817,-24.0611,-5.1985,0,0,0
-0.0691,-0.0718,1.0125,6.2214,-28.5191,-8.687,0,0,0
-0.02,-0.0544,1.0017,9.0382,-32.6183,-9.1603,0,0,0
0.0139,-0.0605,1.0261,7.6718,-31.084,-0.7252,0,0,0
-0.022,-0.0625,1.0139,8.916,-29.7634,2.313,0,0,0
-0.0315,-0.0525,1.0117,7.9466,-30.3588,3.3664,0,0,0
-0.0374,-0.0457,1.001,7.145,-29.4046,2.5954,0,0,0
-0.0342,-0.0261,1.009,5.9389,-27.6412,2.2824,0,0,0
-0.0337,-0.0286,1.0344,2.7176,-23.9542,0.7328,0,0,0
-0.0283,-0.0271,1.0315,0.3664,-20.6031,-3.7634,0,0,0
-0.0085,-0.0547,1.0215,-0.1908,-20.8244,-6.0763,0,0,0
0.0342,-0.0669,1.0547,-0.5191,-19.5878,-7.0611,0,0,0
0.0571,-0.0706,1.041,2.1374,-13.2519,-2.8015,0,0,0
0.0295,-0.0581,1.0615,0.9695,-9.4962,0.5573,0,0,0
0.0232,-0.0393,1.0688,-1.1221,-9.5649,0.1374,0,0,0
0.0247,-0.0618,1.0776,-3.5573,-7.8931,2.3664,0,0,0
0.0137,-0.0435,1.0674,-4.2672,-8.458,1.7252,0,0,0
0.0071,-0.0518,1.062,-5.6489,-9.2595,1.2519,0,0,0
0.0066,-0.0496,1.0498,-5.5496,-9.3893,-0.4198,0,0,0
0.0002,-0.0591,1.0298,-4.1985,-8.1069,-2.7176,0,0,0
0.002,-0.0449,1.0195,-2.5191,-8.1145,-6.0916,0,0,0
0.0134,-0.0571,1.0159,-0.6718,-9.9084,-8.8702,0,0,0
0.0657,-0.0188,1.0098,-0.2519,-11.2672,-6.6641,0,0,0
0.064,-0.0662,1.0317,-1.9313,-8.916,2.3435,0,0,0
0.0259,-0.0461,0.9983,-0.7099,-7.6794,2.2748,0,0,0
0.012,-0.0432,1.0083,-0.0458,-6.7634,0.7557,0,0,0
0.0037,-0.0396,1.0085,1.0153,-5.5954,-1.2214,0,0,0
0.011,-0.0364,1.0269,2.4351,-3.542,-3.0687,0,0,0
0.0183,-0.0315,1.0459,1.9924,0.8473,-5.2137,0,0,0
0.0234,-0.0308,1.0542,-0.0229,4.0,-6.313,0,0,0
0.0161,-0.0349,1.0408,-2.0611,2.6412,-6.5115,0,0,0
0.0459,-0.0305,1.0376,-3.6183,0.4046,-4.9542,0,0,0
0.052,-0.0542,1.0554,-6.1145,1.7863,-0.687,0,0,0
0.0439,-0.0444,1.0435,-7.8855,3.2519,-1.1374,0,0,0
0.0842,-0.0703,1.0681,-8.4427,8.0382,-0.2748,0,0,0
0.0945,-0.0649,1.0701,-9.3893,17.1756,2.1985,0,0,0
0.0273,-0.0833,1.0327,-8.4656,23.8702,1.2366,0,0,0
0.0081,-0.0562,1.0259,-4.9466,26.8779,-0.3435,0,0,0
-0.009,-0.0359,1.0642,-7.4427,32.8855,-0.9695,0,0,0
-0.0168,-0.0408,1.05,-9.9389,36.1679,-3.4962,0,0,0
-0.01,-0.0745,1.0488,-11.6031,38.771,-4.9313,0,0,0
-0.0322,-0.0486,1.0205,-13.916,36.4198,-7.7786,0,0,0
-0.0281,-0.0715,1.011,-12.2977,27.1603,-5.4656,0,0,0
-0.0303,-0.0696,1.0063,-11.2672,18.0,-2.626,0,0,0
-0.0381,-0.0801,0.9888,-10.2366,8.8702,-3.0916,0,0,0
-0.0161,-0.0806,0.9905,-7.8397,3.9466,-3.687,0,0,0
-0.0137,-0.0784,0.9895,-5.7405,0.5496,-0.2137,0,0,0
-0.0271,-0.0654,0.9924,-4.0153,-3.1374,0.7405,0,0,0
-0.0349,-0.0671,1.0186,-4.8092,-4.3817,0.626,0,0,0
-0.0283,-0.0723,1.0063,-4.0763,-5.2672,-0.771,0,0,0
-0.0144,-0.0593,1.0247,-3.4962,-4.1221,0.5878,0,0,0
-0.02,-0.0732,1.0178,-3.4351,-2.9618,3.1756,0,0,0
-0.0403,-0.0784,1.0103,-1.0382,-3.9924,2.3664,0,0,0
-0.0269,-0.0723,1.0215,1.7176,-4.4122,1.3969,0,0,0
-0.0083,-0.063,1.0503,1.0458,-1.9847,0.374,0,0,0
-0.0186,-0.0645,1.0503,-1.3282,-0.5191,0.3282,0,0,0
-0.0237,-0.0583,1.0266,-3.0687,-1.458,0.1679,0,0,0
-0.0259,-0.0732,1.0195,-2.8473,-3.3053,0.0687,0,0,0
-0.0186,-0.072,1.021,-0.6794,-3.3893,-0.2137,0,0,0
-0.0229,-0.0515,1.0337,-1.0458,-2.9237,-0.0153,0,0,0
-0.0193,-0.0652,1.043,-2.2061,-2.1756,1.6489,0,0,0
-0.0215,-0.0562,1.0356,-2.2061,-2.6489,0.5954,0,0,0
0.0024,-0.0647,1.0391,-2.9695,-1.2519,2.3511,0,0,0
0.0063,-0.0513,1.0425,-4.3511,0.8702,4.458,0,0,0
0.0073,-0.0554,1.0544,-8.1832,1.8702,9.5878,0,0,0
-0.0073,-0.0664,1.0552,-12.4046,2.6107,11.916,0,0,0
-0.0237,-0.0811,1.0315,-12.6183,2.0916,11.2672,0,0,0
0.0134,-0.0774,1.0681,-14.9237,6.5649,13.0916,0,0,0
0.0002,-0.0918,1.0393,-18.9389,9.4046,17.5267,0,0,0
0.0234,-0.1052,1.0459,-19.6489,8.5267,24.2214,0,0,0
0.0442,-0.1108,1.0615,-22.626,10.1832,36.2519,0,0,0
0.002,-0.1079,1.0371,-27.3969,13.9695,42.6718,0,0,0
-0.0483,-0.1152,1.0044,-21.7252,9.9466,41.1679,0,0,0
-0.0613,-0.0869,1.002,-20.374,3.0305,39.9924,0,0,0
-0.0193,-0.0796,1.0046,-19.7023,2.1603,41.6107,0,0,0
-0.0461,-0.1067,1.0188,-19.1603,3.8244,43.0,0,0,0
-0.0786,-0.1006,0.9922,-16.0687,2.4427,35.8397,0,0,0
-0.0681,-0.0767,1.0093,-15.0382,0.458,29.1679,0,0,0
-0.0693,-0.0977,1.0176,-16.1069,-0.2672,27.5114,0,0,0
-0.0691,-0.0867,1.0015,-15.3817,-4.9313,24.229,0,0,0
-0.0115,-0.1028,1.031,-18.0534,-4.6565,29.855,0,0,0
-0.0681,-0.1333,1.0002,-17.3435,-4.9771,27.8931,0,0,0
-0.0554,-0.1145,0.9817,-13.3664,-5.4351,20.9542,0,0,0
-0.0537,-0.1248,1.0154,-11.7634,-2.7863,19.5954,0,0,0
-0.0562,-0.1165,1.0186,-9.9313,-2.3206,17.4656,0,0,0
-0.0615,-0.1252,1.0386,-8.4122,-1.1756,13.7176,0,0,0
-0.0669,-0.114,1.0374,-9.2137,-1.2366,10.0305,0,0,0
-0.0801,-0.1174,1.0139,-10.6183,-4.2977,7.2824,0,0,0
-0.0552,-0.1072,1.0178,-9.1985,-6.8473,3.8168,0,0,0
-0.0652,-0.1248,1.0239,-8.6794,-6.3359,0.4733,0,0,0
-0.0515,-0.1343,1.0198,-5.084,-5.4504,-7.1603,0,0,0
-0.012,-0.1318,1.0227,-1.6947,-1.2672,-6.6107,0,0,0
-0.0059,-0.1018,1.0278,-1.1679,2.916,-3.4198,0,0,0
-0.0439,-0.1255,1.0361,-2.9618,4.7634,0.5496,0,0,0
-0.0608,-0.114,1.0073,-3.1221,1.5191,-3.0229,0,0,0
-0.0425,-0.1355,1.0173,-2.3053,1.1908,-5.3817,0,0,0
-0.0464,-0.1582,0.9902,1.4885,2.5191,-9.8702,0,0,0
-0.0647,-0.1677,0.9714,8.0382,1.2901,-17.0153,0,0,0
-0.0586,-0.168,0.9807,15.0992,0.2366,-25.2519,0,0,0
-0.085,-0.1819,0.9817,22.4351,0.2214,-36.5802,0,0,0
-0.0942,-0.1558,0.9697,30.4275,-2.4809,-52.4885,0,0,0
0.0105,-0.064,1.0415,30.8092,1.0687,-57.8168,0,0,0
0.043,-0.0579,1.0686,23.4656,11.1374,-48.0611,0,0,0
-0.0413,-0.093,1.0347,19.7176,11.0153,-36.3359,0,0,0
-0.0674,-0.0737,1.0249,16.9771,4.6107,-35.2901,0,0,0
-0.0405,-0.0862,1.0439,12.5573,0.458,-34.7786,0,0,0
-0.0366,-0.1143,1.0342,9.7786,-1.5802,-36.0992,0,0,0
-0.043,-0.125,1.02,12.313,-2.8015,-40.7099,0,0,0
-0.033,-0.1375,1.0334,16.7557,0.9618,-49.1298,0,0,0
-0.0857,-0.0984,1.0334,23.3053,6.5649,-58.5573,0,0,0
-0.1177,-0.0596,1.031,27.3435,9.6107,-71.1756,0,0,0
-0.1265,-0.0181,1.052,27.8168,11.4427,-82.4733,0,0,0
-0.0667,0.0439,1.1077,17.3053,14.6947,-82.4733,0,0,0
-0.0193,-0.0073,1.0989,3.229,14.3588,-66.4351,0,0,0
-0.0083,-0.0837,1.0291,-0.916,6.6336,-48.7557,0,0,0
0.0317,-0.1133,1.0037,1.145,-0.5496,-39.2901,0,0,0
0.0513,-0.1189,0.989,4.1527,1.6565,-35.8626,0,0,0
0.0356,-0.1362,0.9543,9.5725,4.7863,-32.3817,0,0,0
0.0183,-0.1238,0.9385,17.1756,6.2824,-31.1756,0,0,0
-0.0278,-0.1035,0.9631,24.687,5.7328,-29.8321,0,0,0
-0.0559,-0.0405,1.0229,27.4962,6.4275,-27.6183,0,0,0
-0.1096,0.0078,1.0679,23.7863,8.855,-30.374,0,0,0
-0.1306,0.0142,1.0806,18.6947,8.4122,-34.3664,0,0,0
-0.1074,0.0117,1.0591,13.3664,3.084,-36.5115,0,0,0
-0.0642,-0.0107,1.064,9.0229,0.5878,-35.9008,0,0,0
-0.0161,-0.0264,1.0566,5.4885,-0.145,-34.0458,0,0,0
-0.0015,-0.0605,1.0393,5.4733,-0.1298,-31.7405,0,0,0
-0.0024,-0.0491,1.0522,4.542,1.4351,-29.3817,0,0,0
-0.0122,-0.051,1.0168,2.9771,0.7328,-27.374,0,0,0
-0.0337,-0.0559,1.0266,2.8473,2.8855,-26.0076,0,0,0
-0.0674,-0.0388,1.0142,2.1527,2.6412,-25.7405,0,0,0
-0.0933,-0.0403,0.9875,1.9084,-1.6107,-25.2901,0,0,0
-0.0771,-0.0569,0.9885,2.6641,-8.6183,-22.0305,0,0,0
-0.0703,-0.0486,0.9958,3.9237,-15.6718,-15.6489,0,0,0
-0.0596,-0.0356,1.0159,3.8931,-21.9084,-10.3588,0,0,0
-0.0276,-0.0186,1.0562,2.145,-22.7634,-6.5191,0,0,0
-0.0203,-0.0095,1.083,-2.374,-19.2061,-5.5954,0,0,0
-0.0081,-0.0322,1.0581,-6.8855,-16.2214,-6.4275,0,0,0
0.0242,-0.0605,1.0417,-8.7939,-13.7863,-5.0,0,0,0
0.0481,-0.0789,1.0344,-8.4504,-8.9771,-1.8779,0,0,0
0.0515,-0.0803,1.0149,-7.4351,-1.8931,2.0229,0,0,0
0.0239,-0.0583,1.0239,-5.1145,3.1221,9.6183,0,0,0
0.0195,-0.0361,1.0588,-10.5496,4.0916,31.374,0,0,0
0.0137,-0.082,1.0813,-16.7176,6.4275,52.2901,0,0,0
-0.042,-0.0623,1.019,-15.916,7.1298,51.3969,0,0,0
-0.0403,-0.0591,1.0134,-13.7863,2.9847,48.8092,0,0,0
0.0002,-0.0603,1.0586,-17.2672,3.1069,55.313,0,0,0
-0.0171,-0.0889,1.01,-17.8321,6.4046,60.8779,0,0,0
-0.0264,-0.0615,1.0125,-13.6794,6.687,58.8321,0,0,0
-0.05,-0.0471,1.0117,-11.626,4.8473,49.1985,0,0,0
-0.0667,-0.0334,0.9919,-9.8626,-1.7634,40.2672,0,0,0
-0.0388,-0.0488,1.0273,-13.2595,-7.1221,45.4656,0,0,0
-0.0681,-0.0652,1.0151,-14.2214,-13.5954,47.7252,0,0,0
-0.0774,-0.0549,0.9917,-13.2366,-22.5802,44.9389,0,0,0
-0.0208,-0.03,1.0454,-16.8473,-22.1603,48.1985,0,0,0
-0.0198,-0.0962,1.0437,-20.0458,-20.4809,55.7863,0,0,0
-0.0347,-0.0989,0.9956,-17.0611,-21.2901,49.5115,0,0,0
-0.0193,-0.1111,0.998,-12.4733,-22.0534,41.7176,0,0,0
-0.0168,-0.0989,1.0281,-7.7328,-18.542,34.6489,0,0,0
-0.0491,-0.0833,1.0225,-4.4275,-15.7863,28.1069,0,0,0
-0.0774,-0.0757,1.0227,-1.7099,-16.3664,17.0229,0,0,0
-0.041,-0.0447,1.033,-0.5649,-14.7634,5.5573,0,0,0
-0.0002,-0.0483,1.064,-3.1603,-9.5802,3.0992,0,0,0
0.0432,-0.0286,1.0842,-8.2672,-4.5954,8.3893,0,0,0
0.0266,-0.0574,1.0706,-13.9389,-3.5802,19.084,0,0,0
0.0188,-0.0535,1.0437,-16.5496,-6.3511,23.8321,0,0,0
0.0737,-0.0603,1.0698,-21.8626,-3.0,34.8397,0,0,0
-0.0154,-0.116,1.0007,-22.0916,-0.8168,38.4733,0,0,0
-0.0505,-0.1267,0.9409,-14.916,-2.5038,30.1832,0,0,0
-0.0393,-0.1165,0.9761,-8.6336,-0.0763,19.7405,0,0,0
-0.0364,-0.1204,0.9807,-4.8168,1.5191,11.3969,0,0,0
-0.0369,-0.1326,0.9702,1.9542,-0.1679,4.5267,0,0,0
-0.0127,-0.0911,1.0007,7.3282,-1.1527,-0.7557,0,0,0
-0.0161,-0.0662,1.0828,5.3053,0.8626,0.4046,0,0,0
-0.0403,-0.0059,1.0688,1.2824,-1.1832,-2.9618,0,0,0
0.0103,-0.0513,1.1292,-7.5191,1.2672,4.2824,0,0,0
-0.0405,-0.0632,1.0459,-10.3435,0.7328,3.5573,0,0,0
-0.0242,-0.0928,1.0261,-9.0611,-1.1527,0.5496,0,0,0
0.0156,-0.1079,1.0303,-10.0992,0.7328,0.084,0,0,0
0.0017,-0.1418,0.9949,-7.6183,0.2672,-0.9008,0,0,0
0.0022,-0.1453,0.9785,-1.8244,-0.9237,-4.0611,0,0,0
-0.0037,-0.1304,0.9856,3.3435,0.1832,-7.1679,0,0,0
-0.0103,-0.1091,0.9805,7.4962,0.2137,-9.0382,0,0,0
0.0215,-0.0715,1.0273,7.5191,2.8855,-5.6031,0,0,0
-0.0039,-0.0833,1.0657,2.7863,5.3893,-0.9313,0,0,0
-0.0234,-0.0688,1.0391,0.3893,2.3053,0.1221,0,0,0
-0.0129,-0.0771,1.0632,-3.6107,0.4504,1.2977,0,0,0
-0.0176,-0.0757,1.0466,-5.5267,0.0458,-0.1069,0,0,0
-0.009,-0.1033,1.0344,-6.4198,1.5115,-1.8168,0,0,0
-0.0151,-0.106,1.0049,-4.2519,2.8168,-3.3969,0,0,0
0.0237,-0.0818,1.0366,-5.1298,6.229,1.2672,0,0,0
-0.0081,-0.1099,1.0205,-5.9618,7.9618,4.1069,0,0,0
0.0159,-0.0991,1.05,-5.5573,12.1756,3.6489,0,0,0
-0.0068,-0.0847,1.0569,-7.9389,18.5114,2.7099,0,0,0
0.0032,-0.0715,1.0764,-12.0763,27.1221,8.458,0,0,0
-0.0632,-0.0967,1.0417,-13.2977,32.7252,7.7328,0,0,0
-0.0364,-0.0933,1.0449,-10.2519,37.9771,1.8855,0,0,0
-0.0603,-0.0759,1.0642,-9.2977,52.1145,-3.5802,0,0,0
-0.0857,-0.0962,1.0359,-9.8397,56.1374,-8.3664,0,0,0
-0.0388,-0.0867,1.0603,-13.8473,62.5878,-12.7939,0,0,0
-0.0779,-0.0491,0.9514,-23.5496,61.458,-13.2748,0,0,0
-0.0786,-0.165,0.9954,-20.2977,52.0763,-6.1908,0,0,0
-0.1062,-0.1411,0.9387,-14.4656,35.9618,-1.0916,0,0,0
-0.0498,-0.1716,0.9592,-11.2901,23.0687,-2.6565,0,0,0
-0.0781,-0.1748,0.9614,-4.4656,20.2977,-2.9466,0,0,0
-0.1013,-0.1418,0.9653,-0.626,16.7786,-2.5573,0,0,0
-0.145,-0.1116,0.9836,2.8092,11.5573,1.4122,0,0,0
-0.1833,-0.1006,1.001,4.0382,4.855,0.3511,0,0,0
-0.1655,-0.075,1.0256,3.2901,-3.0687,-4.458,0,0,0
-0.1101,-0.1011,1.0522,-1.084,-2.084,-2.4809,0,0,0
-0.1304,-0.1301,1.021,-1.1908,-2.1221,-2.916,0,0,0
-0.0771,-0.114,1.0352,-2.0916,-1.145,-0.1832,0,0,0
-0.1152,-0.1387,1.0134,-3.2901,0.1145,3.0534,0,0,0
-0.0896,-0.1296,0.9822,0.626,0.7939,2.7176,0,0,0
-0.0349,-0.1091,1.0325,0.7328,5.9924,11.7939,0,0,0
-0.0693,-0.1304,1.041,-3.0763,17.5649,17.5802,0,0,0
-0.1184,-0.1406,1.0063,-1.3511,18.9847,14.2672,0,0,0
-0.1443,-0.1274,0.9993,-0.687,17.8092,11.229,0,0,0
-0.1707,-0.1313,0.9797,0.2061,10.458,8.9542,0,0,0
-0.1763,-0.1392,0.9858,2.916,3.4351,4.0992,0,0,0
-0.177,-0.1013,0.991,5.9771,-0.9771,-2.3817,0,0,0
-0.1174,-0.0793,1.0698,1.458,1.2214,0.9618,0,0,0
-0.156,-0.0613,1.0327,-4.2519,-1.6794,2.9466,0,0,0
-0.1536,-0.095,1.0352,-7.4275,-6.458,6.2366,0,0,0
-0.1279,-0.1152,1.0208,-8.0916,-8.2366,3.7405,0,0,0
-0.0779,-0.0933,1.0603,-6.9847,-0.1298,4.771,0,0,0
-0.1113,-0.0894,1.0896,-9.1221,13.8015,8.8779,0,0,0
-0.1904,-0.1003,0.9946,-8.7176,13.3817,3.0611,0,0,0
-0.1292,-0.1309,1.0083,-6.2061,12.9695,-0.9847,0,0,0
-0.1299,-0.1594,0.9915,-2.626,13.6183,-2.3664,0,0,0
-0.1462,-0.1511,0.9675,1.2443,9.7176,-4.6794,0,0,0
-0.1543,-0.1458,0.9768,5.7023,4.2748,-8.626,0,0,0
-0.1641,-0.127,0.9785,8.1832,-0.2977,-10.9313,0,0,0
-0.1509,-0.1333,0.9841,9.7634,-5.7328,-10.7023,0,0,0
-0.0562,-0.0708,1.04,6.5344,-6.7481,-1.2672,0,0,0
-0.1423,-0.1191,1.0347,4.0,-0.9924,5.8321,0,0,0
-0.1726,-0.0679,0.98,4.7252,-5.3053,0.8855,0,0,0
-0.1145,-0.0891,1.0339,0.3893,-5.6183,3.2824,0,0,0
-0.1289,-0.1118,1.0244,-0.4885,-1.1985,3.2595,0,0,0
-0.1501,-0.1179,0.999,0.0916,-1.313,2.4198,0,0,0
-0.1663,-0.1157,0.9858,1.4351,-5.6794,0.3206,0,0,0
-0.1375,-0.1433,0.9902,5.2214,-10.2519,-2.1374,0,0,0
-0.1233,-0.1526,0.9963,9.1756,-12.2519,-2.1832,0,0,0
-0.1528,-0.147,0.9648,14.2061,-18.6641,-3.0611,0,0,0
-0.1323,-0.0908,0.9568,17.5573,-31.5038,-2.6183,0,0,0
-0.105,-0.0852,1.0718,12.542,-32.9542,-0.7099,0,0,0
-0.1599,-0.0793,1.0442,6.5725,-38.1985,-3.4122,0,0,0
-0.1177,-0.0503,1.0203,2.6336,-49.5725,-2.7176,0,0,0
-0.0405,-0.0801,1.054,-3.2137,-52.6107,8.4046,0,0,0
-0.075,-0.1025,1.0403,-4.1069,-48.4733,12.0534,0,0,0
-0.0779,-0.0928,1.0125,-2.3664,-41.9389,6.8244,0,0,0
-0.0632,-0.0964,1.0259,-2.1374,-32.3969,5.1527,0,0,0
-0.0989,-0.1086,0.9785,0.5954,-33.2061,1.9313,0,0,0
-0.0891,-0.1182,0.9509,6.1603,-43.3664,1.3435,0,0,0
-0.0693,-0.1106,0.9744,10.6947,-49.7252,-0.542,0,0,0
-0.05,-0.1033,1.0105,13.5649,-49.6718,-3.8244,0,0,0
-0.0415,-0.0891,1.0469,13.1756,-45.5115,-7.9237,0,0,0
-0.0288,-0.0769,1.0503,12.2519,-39.5954,-12.5878,0,0,0
0.0435,-0.0513,1.0659,8.7252,-31.4733,-10.0992,0,0,0
0.0356,-0.0825,1.0815,5.3969,-20.626,-3.5344,0,0,0
-0.0435,-0.0771,1.0017,7.8931,-21.3511,-7.9389,0,0,0
-0.0159,-0.0664,0.9949,9.916,-29.7099,-10.0305,0,0,0
0.0493,-0.0723,1.0427,7.229,-28.9924,-2.2366,0,0,0
0.0122,-0.0977,1.0452,6.6641,-22.6947,0.0534,0,0,0
0.0076,-0.0723,1.0503,6.458,-16.6641,-4.2061,0,0,0
0.0181,-0.0737,1.0547,4.5038,-10.626,-6.6107,0,0,0
0.0234,-0.0725,1.0378,4.2748,-7.8931,-8.1985,0,0,0
0.0522,-0.0659,1.0574,5.229,-3.8397,-6.4656,0,0,0
0.0461,-0.0549,1.0747,3.8397,0.0611,-2.687,0,0,0
0.0186,-0.0427,1.071,0.1679,1.1756,-0.9237,0,0,0
0.0007,-0.0447,1.0417,-2.7023,-0.374,-2.5573,0,0,0
-0.0005,-0.0598,1.04,-3.1679,-1.6794,-4.8931,0,0,0
0.0334,-0.0496,1.0413,-3.8473,1.9771,-6.4046,0,0,0
0.0315,-0.0537,1.0354,-5.5649,6.4351,-4.9542,0,0,0
0.0012,-0.0774,0.9934,-4.2519,6.229,-3.1527,0,0,0
0.021,-0.0808,1.0054,0.0458,5.2901,-5.0229,0,0,0
0.0793,-0.0781,1.0845,2.0916,16.3359,-5.7252,0,0,0
0.0601,-0.054,1.1333,-0.8168,38.9389,-4.8168,0,0,0
-0.0281,-0.0291,1.114,-2.5954,56.8779,-7.9618,0,0,0
-0.0737,-0.0479,1.0281,0.5267,65.5344,-15.6183,0,0,0
-0.0461,-0.0376,0.9976,5.6336,70.0076,-21.0458,0,0,0
-0.0576,-0.0552,1.0,9.5115,76.4351,-21.3053,0,0,0
-0.0952,-0.0596,0.9856,12.0229,73.8855,-23.2214,0,0,0
-0.1062,-0.0498,0.9756,12.3359,63.3435,-24.4733,0,0,0
-0.1011,-0.0469,0.9888,10.0229,48.4198,-24.5344,0,0,0
-0.0015,-0.0537,1.0166,4.916,36.6718,-21.458,0,0,0
0.0625,-0.0842,1.052,-0.4351,35.8626,-12.9237,0,0,0
0.0037,-0.1008,1.0278,-3.4733,43.374,-3.9237,0,0,0
-0.0742,-0.1084,0.9668,-1.6336,43.0153,0.7863,0,0,0
-0.1548,-0.083,0.9373,3.3817,36.4046,2.1603,0,0,0
-0.1855,-0.052,0.9629,5.8855,24.916,0.5267,0,0,0
-0.1729,-0.0422,1.0081,5.0992,13.4046,-0.6489,0,0,0
-0.1768,-0.0313,1.0454,3.145,6.7023,-1.4733,0,0,0
-0.1758,-0.0366,1.0579,-0.9542,-0.916,-2.9008,0,0,0
-0.1616,-0.0444,1.0444,-4.0382,-8.8244,-2.9771,0,0,0
-0.1484,-0.0452,1.0361,-6.6718,-15.3206,-0.3893,0,0,0
-0.1445,-0.05,1.0352,-8.1679,-19.5191,0.4122,0,0,0
-0.1555,-0.0361,0.9946,-11.0458,-25.6947,0.4046,0,0,0
-0.1431,-0.0461,0.9902,-13.3511,-35.9389,1.6336,0,0,0
-0.1128,-0.0647,0.9839,-15.2595,-49.0229,1.5496,0,0,0
-0.0759,-0.0767,0.9746,-16.6489,-61.4809,2.3511,0,0,0
-0.0535,-0.0996,0.9712,-15.5344,-74.5115,3.5649,0,0,0
-0.0176,-0.1189,0.9749,-11.313,-79.5038,6.0382,0,0,0
-0.0144,-0.1218,0.9851,-5.687,-77.1527,4.1145,0,0,0
-0.0181,-0.1206,0.9771,2.0611,-71.3893,-0.3893,0,0,0
0.043,-0.0479,1.0164,6.4962,-59.374,-1.9695,0,0,0
0.0903,-0.0735,1.106,2.7939,-37.0534,10.8931,0,0,0
-0.0212,-0.0671,1.0759,7.542,-15.5878,11.3817,0,0,0
-0.0117,0.0122,1.1033,6.3206,-1.0305,8.5344,0,0,0
-0.0376,-0.0049,1.1248,-2.855,6.1298,11.8168,0,0,0
0.0256,0.0237,1.0903,-9.2901,8.1374,15.5878,0,0,0
0.0586,-0.0813,1.1082,-12.687,16.4885,24.8321,0,0,0
-0.0225,-0.0852,1.0168,-9.8702,23.0763,23.8702,0,0,0
-0.0295,-0.0938,1.0042,-2.8168,25.9847,17.7099,0,0,0
0.0349,-0.0667,1.0645,-1.6107,42.0229,21.2901,0,0,0
-0.075,-0.0762,1.0322,-1.1908,53.3282,18.4962,0,0,0
-0.1306,-0.0374,0.979,1.0763,52.7328,8.2214,0,0,0
-0.1301,-0.0322,0.988,1.2519,44.7176,0.6565,0,0,0
-0.1333,-0.0435,0.9771,1.084,29.7786,-2.5344,0,0,0
-0.1121,-0.0532,0.9919,1.4198,12.6489,-4.9847,0,0,0
-0.1101,-0.0593,1.0022,1.7023,-1.1985,-8.9618,0,0,0
-0.1201,-0.0691,0.9937,2.5878,-14.1374,-13.7328,0,0,0
-0.0903,-0.0615,1.0127,3.0458,-24.3511,-17.916,0,0,0
-0.0757,-0.0715,0.9883,5.2137,-34.9313,-20.4962,0,0,0
-0.0601,-0.0854,0.9805,8.9924,-44.3893,-21.9389,0,0,0
-0.0161,-0.0557,1.0,9.7023,-51.9389,-18.8397,0,0,0
0.0352,-0.0417,1.0515,5.6718,-53.374,-11.3053,0,0,0
0.1389,-0.0374,1.1091,-2.8855,-42.9237,4.7176,0,0,0
0.0779,-0.0796,1.095,-7.5038,-26.5802,19.7023,0,0,0
0.032,-0.0234,1.074,-5.6412,-9.0153,25.7634,0,0,0
0.011,-0.0559,1.1047,-9.7405,14.8168,30.7557,0,0,0
-0.0708,-0.0417,1.0386,-6.1298,33.1527,20.5267,0,0,0
-0.0593,-0.0615,1.0432,-5.0305,49.9924,14.8702,0,0,0
-0.063,-0.0562,1.0491,4.1679,73.4351,11.3511,0,0,0
-0.1079,-0.043,1.054,10.9466,99.2824,5.7099,0,0,0
-0.2139,-0.0376,0.9558,18.4656,103.3053,-10.8855,0,0,0
-0.136,-0.0244,0.9773,21.1985,93.6718,-16.9618,0,0,0
-0.0925,-0.062,0.9944,18.0305,75.7557,-13.5725,0,0,0
-0.085,-0.0513,1.0266,11.6641,52.3588,-6.4809,0,0,0
-0.0981,-0.0432,1.0259,2.5954,25.771,0.4656,0,0,0
-0.1301,-0.0662,0.9966,-5.1069,1.0382,2.2748,0,0,0
-0.1169,-0.0952,0.9792,-7.3817,-21.8931,-0.7099,0,0,0
-0.1543,-0.1172,0.981,-4.8779,-37.3359,-3.4351,0,0,0
-0.0942,-0.0713,0.9775,-2.229,-51.1603,-7.3206,0,0,0
-0.1021,-0.0737,0.9866,-4.2977,-61.458,-3.7328,0,0,0
-0.0503,-0.0093,1.0242,-4.6107,-69.7786,-1.6336,0,0,0
0.075,-0.0476,1.1704,-16.2977,-59.7176,16.9466,0,0,0
-0.0674,-0.0671,1.0852,-19.1832,-49.2748,21.9237,0,0,0
-0.0366,-0.053,1.0713,-16.4122,-35.3664,18.4656,0,0,0
0.051,-0.0366,1.116,-17.7557,-9.2214,29.5344,0,0,0
-0.0903,-0.062,1.0513,-15.3893,12.374,38.1832,0,0,0
-0.1631,-0.0432,0.9585,-11.5725,15.6107,28.2061,0,0,0
-0.1221,-0.0789,0.9626,-8.7252,20.4504,16.7786,0,0,0
-0.1091,-0.0908,0.95,-2.8473,21.0763,10.0229,0,0,0
-0.0396,-0.074,0.9836,0.6412,21.4351,11.1145,0,0,0
-0.0615,-0.0894,1.0186,0.0305,23.1374,18.7252,0,0,0
-0.1101,-0.0686,0.9902,-0.5115,17.5878,15.7252,0,0,0
-0.0979,-0.0693,1.0186,-1.3053,8.1908,13.4962,0,0,0
-0.1306,-0.0828,1.0203,-1.9237,-2.8931,14.145,0,0,0
-0.2083,-0.0671,0.9883,-0.1145,-32.0992,11.5344,0,0,0
-0.1589,-0.0269,1.002,-6.0229,-62.3817,5.6336,0,0,0
-0.0642,-0.041,1.0229,-10.7939,-75.0076,4.4427,0,0,0
-0.075,-0.0625,1.0193,-12.9924,-80.6565,0.1145,0,0,0
0.0149,-0.033,1.0007,-11.2824,-78.7939,-5.7099,0,0,0
0.0959,-0.0747,1.0518,-10.5344,-61.3282,2.3893,0,0,0
0.0627,-0.0837,1.0505,-9.5344,-39.0305,13.3435,0,0,0
0.054,0.002,1.0415,-4.8092,-16.7481,17.771,0,0,0
0.1494,-0.0786,1.1482,-10.229,17.5954,35.5496,0,0,0
0.0869,-0.0549,1.0605,-9.6947,41.4427,35.5802,0,0,0
0.0264,-0.1118,1.0703,-6.5115,63.687,35.3588,0,0,0
-0.0793,-0.1157,0.9468,0.1985,78.1756,21.0305,0,0,0
-0.0801,-0.136,0.9268,7.9313,79.7634,8.8168,0,0,0
-0.1016,-0.0977,0.9297,13.9313,73.9924,5.9695,0,0,0
-0.125,-0.064,0.9624,16.1298,61.8015,8.8702,0,0,0
-0.146,-0.041,1.0054,15.1145,46.5038,10.9008,0,0,0
-0.1724,-0.0354,1.052,10.5191,31.5649,11.9847,0,0,0
-0.2566,0.0049,1.0649,5.0534,6.0992,7.916,0,0,0
-0.3081,-0.002,1.0908,-3.6183,-28.0687,-1.313,0,0,0
-0.2847,0.0718,1.0996,-14.2901,-69.6107,-16.7786,0,0,0
-0.0972,-0.0103,1.094,-27.8473,-88.1679,-21.9924,0,0,0
-0.0745,-0.05,0.9915,-29.3817,-98.4428,-28.3817,0,0,0
0.0659,-0.0745,0.9763,-25.084,-93.8855,-28.6183,0,0,0
0.1873,-0.113,1.0361,-24.5573,-68.2672,-7.1756,0,0,0
0.0474,-0.176,0.9648,-13.4122,-45.6489,3.8855,0,0,0
0.0847,-0.0803,0.9858,-4.4656,-26.0229,7.374,0,0,0
0.0264,-0.0881,1.0686,2.0458,3.626,13.0382,0,0,0
-0.0667,0.0442,1.0359,8.3359,32.7863,7.0916,0,0,0
-0.0977,0.0325,1.0396,9.8015,51.2443,-1.6565,0,0,0
-0.1033,0.0032,0.9841,17.1603,66.0687,-10.2061,0,0,0
-0.0515,-0.02,1.0066,26.2595,71.6794,-15.4656,0,0,0
-0.0574,-0.0005,1.0332,30.7176,73.0305,-18.5344,0,0,0
-0.1111,0.0288,1.0349,28.0305,61.6107,-20.916,0,0,0
-0.1675,0.0205,1.0408,23.3282,41.5802,-22.855,0,0,0
-0.2002,0.0371,1.0569,19.3588,5.4275,-27.7176,0,0,0
-0.2139,0.0342,1.0715,11.2977,-26.313,-37.687,0,0,0
-0.1086,0.0222,1.085,0.7176,-50.8855,-47.0992,0,0,0
-0.0903,-0.0745,0.9998,1.1298,-63.626,-58.8702,0,0,0
-0.0979,-0.0596,0.8962,10.4656,-77.916,-81.3359,0,0,0
0.1541,0.1006,0.9651,8.8473,-75.0382,-74.1221,0,0,0
0.1787,-0.0986,1.0884,0.8626,-48.1221,-22.6183,0,0,0
0.0103,-0.0046,0.9851,6.0382,-35.3435,-8.1374,0,0,0
0.0447,-0.0608,1.0657,4.1908,-15.9847,-2.3588,0,0,0
0.0034,-0.0271,1.0789,5.5725,9.4122,-7.6794,0,0,0
0.0164,-0.0181,1.0649,5.0916,30.8931,-11.5802,0,0,0
-0.009,-0.0684,1.0232,6.8855,39.4198,-17.229,0,0,0
0.0,-0.0781,1.0205,13.3206,40.8397,-17.5954,0,0,0
-0.0247,-0.063,1.0903,10.3435,41.2824,-17.229,0,0,0
-0.0583,-0.0432,1.0779,3.7939,38.6489,-17.4198,0,0,0
-0.1023,-0.0583,1.0464,-1.8473,29.542,-20.0534,0,0,0
-0.0986,-0.0764,1.0164,-3.4885,15.9542,-23.6489,0,0,0
-0.0862,-0.0854,1.0369,-2.6718,1.3435,-23.6031,0,0,0
-0.1011,-0.0613,1.0527,-3.916,-14.0076,-24.8244,0,0,0
-0.0706,-0.0422,1.0613,-9.1221,-24.4275,-27.8473,0,0,0
0.0149,-0.0083,1.0562,-16.229,-25.6947,-27.1679,0,0,0
-0.0073,-0.1187,1.0085,-19.4198,-25.0,-15.3969,0,0,0
-0.0249,-0.1201,0.9382,-13.3664,-27.1603,-15.8015,0,0,0
0.0073,-0.1365,0.979,-9.8015,-18.9924,-19.6489,0,0,0
0.0046,-0.116,0.9675,-3.7023,-5.1832,-22.9389,0,0,0
0.0828,-0.1116,1.0266,-1.0763,13.2214,-16.0076,0,0,0
0.0288,-0.0605,1.0015,0.8931,22.7557,-8.855,0,0,0
0.0066,-0.0657,1.0042,-1.313,22.3664,-1.4046,0,0,0
-0.0054,-0.0969,1.0293,-6.8168,23.6107,2.8855,0,0,0
-0.0161,-0.0911,0.9939,-9.9542,21.6031,5.0,0,0,0
-0.0208,-0.1165,0.9944,-12.0076,21.9924,10.1374,0,0,0
0.0168,-0.0862,1.0208,-16.5954,24.1832,19.9237,0,0,0
-0.0415,-0.1069,1.002,-16.3053,24.2977,28.9237,0,0,0
-0.1021,-0.0779,0.9841,-13.0305,16.3282,23.4656,0,0,0
-0.1296,-0.0681,1.0081,-11.2519,3.5344,17.0916,0,0,0
-0.145,-0.0405,1.022,-12.0382,-12.374,11.7328,0,0,0
-0.1819,-0.0859,1.032,-9.0534,-32.4275,3.0229,0,0,0
-0.1519,-0.0381,1.0688,-7.7099,-55.4504,-7.4046,0,0,0
-0.0469,-0.0466,1.1011,-15.1756,-61.2672,-16.6947,0,0,0
-0.0239,-0.1121,1.0349,-15.4733,-61.4504,-26.8473,0,0,0
0.0339,-0.1057,0.9617,-5.458,-58.5115,-36.3053,0,0,0
0.259,-0.0405,1.0586,-8.4122,-39.4198,-9.3817,0,0,0
0.0813,-0.1438,1.0569,-6.1221,-15.8168,15.6947,0,0,0
-0.0359,-0.0374,0.9641,0.9618,-10.1756,7.771,0,0,0
0.0098,-0.0325,1.0466,-1.9466,-1.374,8.687,0,0,0
-0.0083,-0.0527,1.0381,-3.6565,7.2748,12.542,0,0,0
-0.0498,-0.0603,0.9941,-0.9618,7.5649,7.4198,0,0,0
-0.009,-0.0481,1.0149,-0.1985,6.0458,3.5878,0,0,0
0.0156,-0.064,1.0154,0.2748,7.8168,5.4962,0,0,0
-0.0154,-0.0574,1.03,2.2595,11.0611,5.8626,0,0,0
-0.0386,-0.0142,1.0374,2.9084,12.8092,0.4351,0,0,0
0.0154,-0.0447,1.0759,1.2366,20.7023,-0.0916,0,0,0
-0.0273,-0.0532,1.0525,1.9084,24.084,0.1908,0,0,0
-0.0603,-0.0544,0.9961,1.8931,18.6412,-3.2519,0,0,0
-0.0637,-0.0601,0.9797,2.1298,10.1145,-6.3817,0,0,0
-0.0466,-0.0601,0.9812,2.9313,2.5267,-7.5878,0,0,0
0.0046,-0.0334,1.0149,0.9313,0.0534,-2.0,0,0,0
-0.0088,-0.0642,1.0295,-1.9466,1.0687,6.4427,0,0,0
-0.0427,-0.0569,1.0002,-1.7023,-0.9847,5.6565,0,0,0
-0.0107,-0.0581,1.0247,-2.0916,0.2977,6.2595,0,0,0
-0.0173,-0.0745,1.0352,-3.3206,1.0992,9.542,0,0,0
-0.0315,-0.0823,1.0295,-4.2061,-1.2748,9.3511,0,0,0
-0.0452,-0.0811,1.0232,-3.4809,-3.8321,6.2748,0,0,0
-0.0332,-0.0923,1.021,-1.7099,-4.7023,1.7634,0,0,0
-0.0105,-0.0896,1.0376,1.0992,-3.7939,-3.3969,0,0,0
-0.0095,-0.0737,1.0532,3.0076,-2.7863,-4.145,0,0,0
-0.0422,-0.0627,1.0491,3.1985,-5.229,-4.3588,0,0,0
-0.054,-0.0493,1.0442,2.7099,-7.8931,-9.0076,0,0,0
-0.0471,-0.0632,1.0374,1.6794,-8.1756,-13.4046,0,0,0
-0.0259,-0.0483,1.0195,1.7405,-7.7405,-15.8931,0,0,0
0.0212,-0.0586,1.04,0.4656,-5.626,-11.4504,0,0,0
0.0046,-0.0769,1.0183,-0.2977,-4.5954,-8.2824,0,0,0
-0.0205,-0.0833,0.9919,2.7328,-5.9618,-9.5115,0,0,0
-0.0256,-0.0745,1.0002,5.4351,-6.1908,-12.4198,0,0,0
-0.0022,-0.0298,1.0132,6.7557,-5.6183,-15.2977,0,0,0
0.0913,-0.0261,1.0903,-0.1908,0.2901,-0.1756,0,0,0
-0.0195,-0.0625,1.0359,-3.0229,0.3664,9.855,0,0,0
-0.052,-0.0493,0.9971,-2.458,-5.1985,4.7176,0,0,0
-0.0291,-0.053,1.0242,-3.5115,-5.9237,1.1221,0,0,0
-0.0122,-0.0681,1.0151,-3.0076,-5.5496,-0.4962,0,0,0
-0.0186,-0.0676,1.0132,-0.5115,-5.6336,-3.1527,0,0,0
-0.0188,-0.0618,1.0227,0.9237,-5.6794,-6.0382,0,0,0
-0.0256,-0.054,1.0396,3.229,-5.6718,-8.5802,0,0,0
-0.0078,-0.0447,1.0464,3.3359,-5.6336,-9.5496,0,0,0
-0.0303,-0.0503,1.0442,3.4122,-6.5496,-11.4809,0,0,0
-0.0332,-0.0474,1.0305,2.7786,-8.4962,-16.2519,0,0,0
-0.0261,-0.0444,1.0281,2.1679,-10.1069,-20.6336,0,0,0
0.0479,-0.0347,1.043,0.2443,-8.5802,-16.8702,0,0,0
0.0408,-0.0425,1.0291,0.145,-3.9771,-10.3817,0,0,0
0.0078,-0.0554,1.0168,1.3206,-2.9618,-4.5649,0,0,0
-0.021,-0.0486,1.0249,2.3282,-3.6794,-6.6336,0,0,0
-0.0205,-0.0466,1.0251,1.687,-6.3053,-9.5115,0,0,0
-0.002,-0.0525,1.0288,2.0153,-6.7786,-11.916,0,0,0
0.0625,-0.0396,1.0488,2.8321,-3.7557,-10.3359,0,0,0
0.0754,-0.0586,1.0872,-1.2061,2.0076,1.687,0,0,0
-0.0005,-0.0396,1.0347,-2.6336,-1.084,2.9542,0,0,0
0.0056,-0.0432,1.0459,-3.1603,-4.4122,0.2901,0,0,0
0.0151,-0.0542,1.0488,-3.5344,-3.7481,-0.1985,0,0,0
0.0029,-0.0586,1.0352,-2.9008,-2.8855,-1.2824,0,0,0
0.0042,-0.0525,1.0239,-1.9847,-2.4504,-2.9389,0,0,0
0.02,-0.0637,1.02,-0.6565,-1.458,-2.8244,0,0,0
0.0159,-0.0706,1.0244,1.5038,-0.9008,-2.9924,0,0,0
-0.002,-0.0588,1.0249,3.313,-1.626,-4.771,0,0,0
-0.0125,-0.05,1.0178,4.1832,-1.9847,-7.2061,0,0,0
-0.0024,-0.0222,1.0249,4.0229,-2.8397,-9.0229,0,0,0
0.0654,-0.0105,1.0767,-1.7252,-0.1069,1.1908,0,0,0
0.0405,-0.0039,1.0706,-7.3053,2.8473,12.3664,0,0,0
0.011,-0.0498,1.0542,-11.7786,3.3435,18.2519,0,0,0
-0.0039,-0.03,1.0181,-11.084,0.1985,14.1832,0,0,0
0.0261,-0.0588,1.0532,-12.8321,0.2672,16.626,0,0,0
-0.0085,-0.0588,1.0129,-11.1603,-0.4275,15.0611,0,0,0
-0.0127,-0.0706,1.0122,-8.6412,-1.0458,10.9237,0,0,0
-0.0127,-0.0767,1.0134,-6.8855,-0.145,4.8092,0,0,0
0.0029,-0.0891,1.0085,-4.0992,-0.5344,-0.7176,0,0,0
0.0149,-0.0901,1.0039,-1.5573,-1.458,-2.9466,0,0,0
0.0215,-0.0864,1.0,0.9924,-1.3664,-3.4275,0,0,0
0.0347,-0.0713,1.0208,2.2824,0.3282,-0.4885,0,0,0
0.0054,-0.0444,1.0332,1.6183,2.3969,4.374,0,0,0
-0.0305,-0.0442,1.0383,-0.0305,0.916,4.0992,0,0,0
-0.0081,-0.0342,1.0408,-1.7176,-0.8626,1.1145,0,0,0
0.0269,-0.0391,1.0779,-5.1374,1.3893,4.687,0,0,0
0.0356,-0.0608,1.0652,-8.7176,3.7099,6.0382,0,0,0
-0.0029,-0.0701,1.0303,-10.0687,1.4504,5.7405,0,0,0
0.0132,-0.0793,1.0137,-10.3969,-2.1069,5.1985,0,0,0
0.0137,-0.0994,0.9858,-7.7328,-2.542,5.3359,0,0,0
0.0068,-0.095,0.9805,-2.5267,-1.5038,3.9313,0,0,0
-0.0061,-0.075,0.9958,1.374,0.8092,1.5038,0,0,0
-0.0137,-0.0374,1.0129,1.3817,0.8626,1.0763,0,0,0
-0.0022,-0.0535,1.03,-2.7099,0.145,4.855,0,0,0
0.0063,-0.0669,1.012,-2.6641,-1.2366,3.8168,0,0,0
0.0315,-0.0845,1.0198,-1.3588,-1.0611,4.4656,0,0,0
0.0195,-0.0708,1.0222,-0.4733,-1.0534,4.4275,0,0,0
0.0205,-0.0496,1.0381,-1.0916,-0.2137,5.9466,0,0,0
-0.0042,-0.0461,1.061,-3.5191,0.084,6.458,0,0,0
-0.021,-0.0483,1.0381,-5.1298,-1.5954,4.4809,0,0,0
-0.0002,-0.0613,1.0371,-6.145,-1.9771,2.7405,0,0,0
0.0298,-0.0525,1.0378,-6.145,2.3969,4.4122,0,0,0
0.0171,-0.0786,1.0356,-5.6489,5.5954,6.1069,0,0,0
0.0029,-0.0698,1.0205,-4.0611,4.7863,4.5878,0,0,0
0.0034,-0.0647,1.0339,-4.0992,3.9389,3.8015,0,0,0
-0.0024,-0.0608,1.0288,-4.4733,1.9389,5.5573,0,0,0
-0.0054,-0.0613,1.0215,-5.2443,-1.0382,6.7099,0,0,0
-0.0115,-0.0828,1.0205,-4.9695,-2.3206,6.4885,0,0,0
0.0027,-0.0815,1.0193,-4.3359,-2.6947,4.313,0,0,0
0.0054,-0.0952,0.9958,-1.8092,-2.4351,3.2519,0,0,0
0.0085,-0.0852,0.9941,1.0229,-2.5573,3.2901,0,0,0
0.0024,-0.073,1.0054,4.3511,-1.5649,2.6031,0,0,0
0.0002,-0.0559,1.0222,6.5954,-0.4122,1.7023,0,0,0
-0.0105,-0.0283,1.0369,5.3359,-0.2748,1.5725,0,0,0
-0.0049,-0.0239,1.0623,2.4656,-0.687,2.5496,0,0,0
-0.0105,-0.0261,1.0627,-1.6565,-3.2672,3.916,0,0,0
-0.0149,-0.0332,1.0371,-4.8092,-4.2595,2.7481,0,0,0
0.0129,-0.0464,1.0344,-5.5802,-2.1908,4.0534,0,0,0
-0.0076,-0.0457,1.0051,-4.9924,-0.7481,6.0153,0,0,0
-0.019,-0.0549,0.9956,-2.0076,-1.8779,5.6565,0,0,0
-0.011,-0.05,1.01,-0.1145,-1.7634,3.3511,0,0,0
0.001,-0.0569,1.0283,1.2901,-1.1832,1.1908,0,0,0
0.0105,-0.0515,1.0405,1.6489,-0.626,-0.0153,0,0,0
0.0059,-0.0547,1.0491,-0.5115,0.0,-0.1221,0,0,0
0.0051,-0.0505,1.0452,-2.0458,-1.3511,0.5802,0,0,0
0.0139,-0.05,1.0364,-2.6107,-2.4046,1.7634,0,0,0
0.0042,-0.0662,1.0383,-2.8092,-1.8855,2.7099,0,0,0
0.0049,-0.0662,1.0266,-1.4427,-1.5954,1.6641,0,0,0
0.0034,-0.0688,1.0322,-0.0458,-0.687,0.5649,0,0,0
0.0103,-0.0588,1.0415,-0.374,-0.2824,0.2977,0,0,0
0.0032,-0.0659,1.0427,-1.3053,1.1679,0.6565,0,0,0
-0.0017,-0.0627,1.0347,-1.5573,0.1908,-0.1756,0,0,0
0.0005,-0.0676,1.0261,-1.2595,-0.6107,-0.3969,0,0,0
0.0068,-0.0623,1.0176,0.2061,-0.8321,-1.0076,0,0,0
-0.0051,-0.0605,1.0144,0.8397,-0.3893,-2.7176,0,0,0
0.0002,-0.0535,1.0244,0.916,-0.0229,-2.7252,0,0,0
0.0183,-0.0488,1.0298,-1.2443,-0.2672,0.0534,0,0,0
0.0017,-0.0667,1.0234,-2.3053,-1.3435,3.0,0,0,0
0.0081,-0.0542,1.0217,-1.6183,-2.0687,2.4351,0,0,0
0.0061,-0.0544,1.0393,-2.3969,0.1832,2.9542,0,0,0
-0.0164,-0.0466,1.0183,-2.4885,-0.8015,3.0229,0,0,0
-0.0105,-0.0615,1.0183,-1.9389,-2.7252,2.4885,0,0,0
0.0112,-0.0605,1.0308,-1.2977,-2.3053,1.313,0,0,0
0.0166,-0.0703,1.0339,-0.3511,-0.7176,0.4275,0,0,0
0.0107,-0.0461,1.0298,0.1221,-0.2595,-0.1832,0,0,0
0.0115,-0.04,1.0623,-1.7023,0.5878,2.2519,0,0,0
-0.0017,-0.0508,1.0471,-2.771,0.8321,0.3664,0,0,0
-0.0002,-0.0598,1.0386,-2.4427,0.2061,-0.7939,0,0,0
0.0144,-0.0588,1.0347,-1.9237,0.3206,-1.5191,0,0,0
0.0005,-0.0554,1.0281,-1.2519,0.6565,-0.6107,0,0,0
-0.0022,-0.0488,1.0232,-2.0534,-0.6489,1.9466,0,0,0
0.0112,-0.0503,1.0247,-1.8702,-1.2748,-0.1069,0,0,0
0.032,-0.0603,1.0435,-1.8779,2.2595,2.8397,0,0,0
0.0068,-0.0376,1.0371,-1.9084,2.6565,4.7023,0,0,0
-0.0166,-0.0449,1.0291,-2.8092,0.1679,5.2214,0,0,0
-0.0139,-0.0527,1.0391,-4.2595,-0.5038,4.145,0,0,0
-0.012,-0.064,1.0276,-4.9542,-1.1908,1.2137,0,0,0
-0.0078,-0.0769,1.0154,-4.5573,-1.7481,-1.3817,0,0,0
-0.0015,-0.0757,1.0027,-3.374,-2.7863,-2.9924,0,0,0
0.0278,-0.0742,1.0059,-1.3588,-2.5038,-2.6641,0,0,0
0.0156,-0.0813,1.0264,0.2824,0.2901,-1.4351,0,0,0
-0.0005,-0.0706,1.0222,1.3435,-0.2061,-2.8626,0,0,0
0.0007,-0.0649,1.0437,0.9466,-1.0458,-3.7405,0,0,0
0.0105,-0.0569,1.0442,-0.4504,-0.1374,-3.4504,0,0,0
0.022,-0.0537,1.0483,-2.3511,0.0153,0.6412,0,0,0
0.0105,-0.0698,1.0366,-2.5878,-0.6718,2.8779,0,0,0
0.0046,-0.0603,1.0276,-2.2443,-0.3893,1.1832,0,0,0
0.0132,-0.061,1.0432,-2.4351,0.687,0.1374,0,0,0
0.0134,-0.063,1.0298,-2.5496,0.6641,1.1908,0,0,0
0.0046,-0.0542,1.0312,-2.8626,0.7634,2.1298,0,0,0
-0.0105,-0.0581,1.0237,-2.8092,0.626,0.8244,0,0,0
-0.0002,-0.0596,1.0212,-2.1069,0.9542,-0.8702,0,0,0
-0.001,-0.0562,1.0178,-0.2443,1.145,-1.855,0,0,0
-0.0066,-0.0442,1.0215,0.084,1.5038,0.687,0,0,0
-0.0181,-0.0471,1.0166,0.1527,-0.542,-0.7405,0,0,0
-0.0076,-0.0491,1.0347,0.3511,-0.9008,-2.8244,0,0,0
0.0112,-0.0313,1.043,-1.4656,0.0076,-1.9389,0,0,0
-0.001,-0.0542,1.0325,-3.4656,-0.1221,0.6183,0,0,0
-0.0066,-0.0598,1.0208,-3.0992,-1.5802,0.3435,0,0,0
0.0012,-0.0566,1.0273,-3.0382,-1.458,-1.3817,0,0,0
0.0115,-0.0647,1.03,-2.7939,0.5573,-2.1069,0,0,0
0.0034,-0.0635,1.0232,-1.6489,0.4885,-1.9847,0,0,0
0.0171,-0.0601,1.0266,-0.7786,-1.2748,-1.6489,0,0,0
0.0249,-0.0681,1.052,-1.3893,1.229,0.4962,0,0,0
-0.0088,-0.0605,1.0288,-2.4198,1.1298,0.0076,0,0,0
-0.0095,-0.0591,1.0332,-2.2901,-0.0916,-1.542,0,0,0
0.0098,-0.0679,1.0356,-2.1221,1.229,-2.374,0,0,0
0.0186,-0.0657,1.0435,-1.2672,3.2977,-2.0153,0,0,0
0.0073,-0.0627,1.0369,-1.4885,4.1679,-1.8168,0,0,0
0.0125,-0.0623,1.0396,-1.4809,4.6183,-1.5344,0,0,0
0.0149,-0.0596,1.0437,-1.7634,7.0916,-1.0229,0,0,0
0.0,-0.064,1.0283,-1.2901,9.6794,-1.6718,0,0,0
0.0137,-0.054,1.032,-0.7557,14.5496,-3.0687,0,0,0
0.0,-0.0496,1.0322,1.4656,18.145,-2.0534,0,0,0
0.0417,-0.063,1.0693,0.2824,30.9695,1.3893,0,0,0
-0.0229,-0.071,1.0022,3.626,32.1527,-2.6183,0,0,0
-0.0378,-0.0476,0.9878,3.0458,26.916,-1.0305,0,0,0
-0.0444,-0.0579,1.0205,1.458,20.9924,-0.0229,0,0,0
-0.0178,-0.0532,1.0349,-0.313,17.4046,-0.145,0,0,0
0.0007,-0.0527,1.0552,-1.6107,20.0076,1.9924,0,0,0
-0.0232,-0.0596,1.0562,-4.8015,21.0076,6.5267,0,0,0
-0.0583,-0.0535,1.0225,-5.6336,16.687,7.4122,0,0,0
-0.0459,-0.0503,1.04,-7.4733,14.6183,9.4656,0,0,0
-0.0854,-0.0601,1.0242,-8.9771,11.458,8.7405,0,0,0
-0.0947,-0.0625,1.001,-8.6031,5.6031,5.1603,0,0,0
-0.0859,-0.0754,0.9854,-6.4198,2.1908,0.916,0,0,0
-0.0659,-0.075,0.9761,-2.6565,-0.0687,-2.1069,0,0,0
-0.0305,-0.0876,0.9766,1.8779,2.9542,-3.1527,0,0,0
-0.0449,-0.071,0.991,5.2061,6.3969,-0.9542,0,0,0
-0.0708,-0.0518,0.9995,5.5649,5.3893,0.0916,0,0,0
-0.0449,-0.0557,1.0244,4.6718,2.5496,1.2901,0,0,0
-0.0476,-0.0444,1.0625,1.687,1.5802,2.4504,0,0,0
-0.0715,-0.0393,1.0593,-2.3588,-1.5496,2.4198,0,0,0
-0.0632,-0.032,1.0559,-4.7252,-3.8473,2.7863,0,0,0
-0.0576,-0.0457,1.0515,-6.5191,-2.8931,3.2061,0,0,0
-0.071,-0.053,1.0269,-6.1298,-2.145,1.8779,0,0,0
-0.0649,-0.0613,1.0208,-4.8168,0.2824,-0.4809,0,0,0
-0.0457,-0.0742,1.0225,-2.8702,2.0763,-2.145,0,0,0
-0.0293,-0.0654,1.0244,-1.7557,3.7557,0.4809,0,0,0
-0.0601,-0.0627,1.0325,-2.2366,3.5802,0.4046,0,0,0
-0.0649,-0.0596,1.0244,-1.8092,1.5191,-0.5191,0,0,0
-0.0603,-0.0566,1.0256,-1.5496,1.7328,-0.5725,0,0,0
-0.0688,-0.0339,1.0181,-2.3206,3.8702,0.2595,0,0,0
-0.0806,-0.0627,1.0103,-3.1756,3.1069,0.7328,0,0,0
-0.0583,-0.0688,1.0056,-1.7634,1.916,-1.3206,0,0,0
-0.031,-0.0623,1.0342,-1.0611,5.9542,1.6336,0,0,0
-0.0776,-0.0535,1.0222,-2.145,5.7481,2.9466,0,0,0
-0.0771,-0.0344,1.0288,-2.7939,3.1756,3.0153,0,0,0
-0.0593,-0.0659,1.0496,-4.2748,2.7328,2.8626,0,0,0
-0.0535,-0.0706,1.0378,-3.0382,3.0611,1.3664,0,0,0
-0.0466,-0.0652,1.0413,-2.2443,5.5954,0.4656,0,0,0
-0.0498,-0.0752,1.03,-2.2595,8.5038,-0.1908,0,0,0
-0.042,-0.0708,1.0227,-2.4656,10.2901,0.7176,0,0,0
-0.0557,-0.0771,1.0278,-2.0076,11.2672,2.1985,0,0,0
-0.0789,-0.0552,1.0339,-2.6565,11.1756,1.458,0,0,0
-0.0728,-0.052,1.0339,-4.3588,9.4198,3.2977,0,0,0
-0.0754,-0.0601,1.0334,-5.3588,7.9313,4.3511,0,0,0
-0.0706,-0.0532,1.0493,-5.9008,7.8397,5.0458,0,0,0
-0.0698,-0.0388,1.0603,-9.5573,12.0763,7.7481,0,0,0
-0.1079,-0.0562,1.0305,-12.7099,8.855,8.6412,0,0,0
-0.0852,-0.0618,1.0227,-11.1527,9.3969,7.7405,0,0,0
-0.0808,-0.0627,1.0359,-12.5496,17.0153,6.8397,0,0,0
-0.1243,-0.0784,0.9961,-11.8015,19.1527,3.1756,0,0,0
-0.1086,-0.0933,1.002,-8.0916,17.8626,1.1374,0,0,0
-0.1213,-0.0867,0.9844,-5.4809,15.5573,-0.542,0,0,0
-0.1082,-0.0811,0.9985,-3.3053,11.9008,-1.687,0,0,0
-0.0945,-0.0737,1.0198,-4.084,10.5649,-0.1145,0,0,0
-0.1172,-0.0635,1.0134,-4.9313,6.8931,-0.5496,0,0,0
-0.0891,-0.0605,1.0293,-6.3282,5.084,0.1527,0,0,0
-0.1052,-0.0725,1.0247,-8.4275,3.0992,2.3664,0,0,0
-0.1296,-0.0542,0.939,-9.4962,-1.7099,2.4275,0,0,0
-0.0955,-0.0872,1.0056,-6.4504,0.5649,5.7328,0,0,0
-0.1321,-0.1001,0.9717,-4.2214,1.9771,6.6412,0,0,0
-0.126,-0.0908,0.9741,0.1145,-0.3969,3.5496,0,0,0
-0.1162,-0.0869,1.001,2.9084,1.1679,1.7863,0,0,0
-0.127,-0.0857,1.0071,4.2061,0.9084,0.9084,0,0,0
-0.1245,-0.0718,1.0181,4.8092,-1.1603,-1.6031,0,0,0
-0.1226,-0.0657,1.0276,3.7863,-2.9924,-2.1832,0,0,0
-0.1135,-0.064,1.0276,3.2366,-5.458,-3.374,0,0,0
-0.1162,-0.0771,1.0225,3.7252,-6.5191,-4.8321,0,0,0
-0.136,-0.0645,0.9863,6.6412,-8.5344,-7.5878,0,0,0
-0.1028,-0.0691,0.9978,8.5267,-9.8244,-6.5649,0,0,0
-0.1045,-0.0688,0.9587,13.374,-10.7176,-6.1603,0,0,0
-0.1077,-0.0525,0.9802,16.0916,-11.7405,-3.855,0,0,0
-0.1033,-0.0483,1.0178,15.3359,-13.0076,-5.1298,0,0,0
-0.0808,-0.042,1.0449,13.2672,-14.1832,-4.2824,0,0,0
-0.0837,-0.0537,1.0527,11.9771,-15.5267,-1.6718,0,0,0
-0.0808,-0.0396,1.0454,10.3359,-16.1069,-0.542,0,0,0
-0.0913,-0.0322,1.0544,6.1756,-13.7557,-2.6794,0,0,0
-0.0713,-0.0439,1.0642,2.4733,-9.7023,-2.4885,0,0,0
-0.0774,-0.0566,1.0378,2.6565,-5.1527,-3.1527,0,0,0
-0.0715,-0.0554,1.0259,5.6718,-2.855,-4.1298,0,0,0
-0.0879,-0.0449,1.0247,6.3435,-2.5191,-2.2061,0,0,0
-0.1064,-0.0315,1.0251,5.8397,-5.6947,-4.2137,0,0,0
-0.0862,-0.0388,1.0442,4.6183,-7.0687,-5.5267,0,0,0
-0.085,-0.0386,1.0259,3.687,-6.8168,-7.0153,0,0,0
-0.0901,-0.05,1.0117,3.8015,-5.1527,-9.0763,0,0,0
-0.0974,-0.0417,1.0117,5.4427,-3.0,-14.2366,0,0,0
-0.0754,-0.0352,1.0271,6.6489,-1.1985,-18.9389,0,0,0
-0.042,-0.0217,1.0479,4.7557,2.7252,-16.3588,0,0,0
-0.0537,0.0107,1.0464,1.2366,4.5802,-7.542,0,0,0
-0.1162,-0.0068,1.0229,-0.5267,2.4733,-3.8779,0,0,0
-0.1138,0.0115,1.0354,-2.0916,-0.7099,-4.542,0,0,0
-0.0784,-0.0359,1.0544,-3.9237,0.4427,-5.7863,0,0,0
-0.0771,-0.0461,1.0186,-2.1832,1.6412,-6.9695,0,0,0
-0.0549,-0.0564,1.0129,0.0153,2.8321,-6.9618,0,0,0
-0.0669,-0.0586,1.0066,1.9008,2.3969,-7.0458,0,0,0
-0.0752,-0.0464,1.0188,3.9771,2.916,-7.6031,0,0,0
-0.0957,-0.0417,1.0295,4.8244,2.9389,-9.5725,0,0,0
-0.0999,-0.0256,1.03,4.374,1.3511,-11.916,0,0,0
-0.0776,-0.0313,1.0461,1.2672,-0.1374,-8.6031,0,0,0
-0.0645,-0.0444,1.0391,-0.6412,-0.8931,-6.458,0,0,0
-0.0657,-0.0518,1.032,-0.1603,-0.5954,-6.4122,0,0,0
-0.0596,-0.0471,1.0281,0.0611,-0.8397,-5.3053,0,0,0
-0.063,-0.0432,1.0354,-0.6565,0.7634,-4.1298,0,0,0
-0.0894,-0.0327,1.0144,-1.5496,-0.0153,-3.2061,0,0,0
-0.092,-0.0315,1.0105,-1.7557,-1.5115,-3.5191,0,0,0
-0.0833,-0.0476,1.0215,-1.4046,-0.2977,-4.4504,0,0,0
-0.074,-0.0471,1.0215,-1.084,1.1374,-5.8321,0,0,0
-0.0676,-0.0371,1.009,-1.229,2.5038,-5.8855,0,0,0
-0.0686,-0.0383,1.0205,-0.2443,2.4885,-3.1985,0,0,0
-0.0745,-0.0269,1.0347,1.3588,2.1832,-1.1374,0,0,0
-0.0938,-0.011,1.0527,-0.4275,1.9847,-0.1603,0,0,0
-0.0989,-0.0161,1.052,-2.1374,2.2748,-2.0229,0,0,0
-0.0872,-0.0313,1.043,-2.542,2.7328,-4.3435,0,0,0
-0.0989,-0.0383,1.0364,-2.6107,3.4351,-5.5878,0,0,0
-0.0847,-0.0413,1.0161,-2.5267,1.8931,-7.1069,0,0,0
-0.064,-0.0605,1.0042,-1.3206,1.7099,-6.9237,0,0,0
-0.0508,-0.0559,1.0027,1.2748,3.3511,-5.916,0,0,0
-0.0723,-0.043,1.0107,2.5649,5.5802,-2.5649,0,0,0
-0.106,-0.0337,1.0217,3.1527,4.5496,-1.9771,0,0,0
-0.0974,-0.0168,1.0405,1.145,3.7176,-3.0229,0,0,0
-0.0986,-0.0232,1.0447,-2.2366,4.0687,-3.4122,0,0,0
-0.0876,-0.0405,1.0442,-4.6794,3.9466,-4.0382,0,0,0
-0.085,-0.0471,1.0132,-4.9618,3.1069,-4.3053,0,0,0
-0.0811,-0.0564,1.0042,-3.0992,0.9466,-3.3969,0,0,0
-0.0881,-0.0505,1.0073,-1.0,0.5725,-2.9313,0,0,0
-0.0845,-0.0447,1.0229,-0.2901,0.7634,-3.5038,0,0,0
-0.0908,-0.0376,1.0312,-0.7176,2.855,-4.8397,0,0,0
-0.0959,-0.0305,1.0403,-1.0763,4.9313,-5.9084,0,0,0
-0.0925,-0.0212,1.033,-3.3893,6.6489,-5.916,0,0,0
-0.0928,-0.042,1.0298,-4.3893,5.5573,-3.1832,0,0,0
-0.1011,-0.0381,1.0105,-4.0229,3.1527,-2.916,0,0,0
-0.0947,-0.0369,1.0125,-2.8244,0.6794,-2.3359,0,0,0
-0.0784,-0.0479,1.0144,-0.7557,0.8626,-1.1527,0,0,0
-0.0918,-0.0354,1.0105,0.3206,0.5802,0.1298,0,0,0
-0.0933,-0.0217,1.0339,-0.8397,-0.3053,0.374,0,0,0
-0.0854,-0.032,1.0513,-1.7634,0.0382,1.1221,0,0,0
-0.094,-0.0171,1.0471,-4.4275,0.9389,3.2901,0,0,0
-0.1147,-0.0239,1.0178,-4.3817,0.8931,3.1374,0,0,0
-0.1174,-0.0122,1.0059,-4.5573,0.4656,1.9695,0,0,0
-0.1162,-0.0222,1.0186,-4.3817,1.9008,0.8092,0,0,0
-0.1182,-0.0234,1.0059,-3.0611,4.3053,-2.0076,0,0,0
-0.1121,-0.0325,1.0115,-2.2824,3.4046,-3.5649,0,0,0
-0.0994,-0.0381,1.0261,-1.8397,1.6565,-3.6947,0,0,0
-0.0842,-0.0466,1.0288,-1.4275,0.6031,-3.6641,0,0,0
-0.0908,-0.0522,1.0217,-0.8702,-0.2977,-3.0,0,0,0
-0.0933,-0.0432,1.022,-0.5649,-1.4504,-2.1756,0,0,0
-0.1057,-0.0308,1.0312,-0.4198,-0.9389,-2.0229,0,0,0
-0.1177,-0.0256,1.0291,-0.8473,-0.5496,-2.2901,0,0,0
-0.1018,-0.01,1.0273,-2.9389,0.0687,-0.9008,0,0,0
-0.1021,-0.0483,1.0198,-3.229,1.1908,0.0611,0,0,0
-0.0818,-0.0457,1.0149,-1.9771,1.1603,-1.5954,0,0,0
-0.0859,-0.0474,1.0168,-0.2824,1.9008,-1.0611,0,0,0
-0.0974,-0.0388,1.0247,1.4962,3.3206,-1.4275,0,0,0
-0.1226,-0.0215,1.0215,0.6336,2.3206,-2.626,0,0,0
-0.1196,-0.0215,1.0271,-1.0687,-0.458,-3.7099,0,0,0
-0.1111,-0.0305,1.0273,-2.3588,-1.9008,-3.687,0,0,0
-0.0994,-0.0437,1.0171,-1.8855,-1.7176,-4.1908,0,0,0
-0.0977,-0.0413,1.009,-0.4275,0.8702,-4.5191,0,0,0
-0.0957,-0.0371,1.0071,0.0458,4.6641,-4.7863,0,0,0
-0.0986,-0.043,1.0144,2.8931,8.1221,-5.9695,0,0,0
-0.1128,-0.0283,1.0278,3.9008,10.0916,-8.1832,0,0,0
-0.1279,-0.0193,1.0347,2.916,7.1756,-7.7252,0,0,0
-0.1118,-0.0134,1.0496,0.1221,4.6031,-6.229,0,0,0
-0.1038,-0.0288,1.043,-3.6565,1.5725,-1.4046,0,0,0
-0.1111,-0.041,1.0208,-4.4122,-2.0534,0.0992,0,0,0
-0.0959,-0.0334,1.0178,-4.9313,-3.313,0.2595,0,0,0
-0.0806,-0.0569,1.0195,-3.9695,0.6794,0.5267,0,0,0
-0.1123,-0.0527,0.989,-0.1756,3.5267,-0.7863,0,0,0
-0.116,-0.0251,1.0132,2.2519,4.4122,-0.916,0,0,0
-0.1116,-0.0232,1.0415,0.4046,6.5573,-1.4885,0,0,0
-0.1223,-0.0239,1.0386,-0.7557,6.313,-1.2824,0,0,0
-0.1304,-0.021,1.0288,-3.4198,3.0916,-1.7405,0,0,0
-0.1228,-0.0403,1.0176,-5.4656,-1.8397,-1.6031,0,0,0
-0.1016,-0.0369,1.0056,-5.3817,-3.7252,-0.6031,0,0,0
-0.0979,-0.0535,0.9958,-4.0153,-2.7634,0.9924,0,0,0
-0.1257,-0.0522,0.988,-0.4885,-2.458,0.7863,0,0,0
-0.1243,-0.0366,1.0005,1.4809,-3.8626,-0.6489,0,0,0
-0.1074,-0.0391,1.0388,1.6794,-3.3435,-1.4809,0,0,0
-0.0969,-0.0354,1.0496,1.0763,-1.7405,-2.9008,0,0,0
-0.1023,-0.0244,1.0469,-0.084,-1.2748,-3.1985,0,0,0
-0.0999,-0.031,1.0464,-1.5878,0.0153,-3.2519,0,0,0
-0.1104,-0.0369,1.0251,-1.1145,0.9542,-4.4122,0,0,0
-0.1096,-0.0264,1.0176,-0.4427,1.229,-4.8397,0,0,0
-0.115,-0.02,1.0159,-0.4809,2.0229,-2.3282,0,0,0
-0.1379,-0.0295,1.0037,-0.1069,0.6565,-0.1069,0,0,0
-0.1304,-0.019,1.0081,0.1069,-2.374,-1.0382,0,0,0
-0.1091,-0.0264,1.0278,-0.9237,-2.8244,-2.1908,0,0,0
-0.106,-0.0286,1.0127,-0.6641,-2.3664,-1.8244,0,0,0
-0.1062,-0.0276,1.0132,-0.2977,-2.9008,-2.1985,0,0,0
-0.1072,-0.0339,1.0225,0.7634,-2.5649,-3.1603,0,0,0
-0.0977,-0.0286,1.0217,1.1908,-2.0534,-3.8168,0,0,0
-0.1057,-0.0376,1.0347,0.8397,-1.4427,-5.2366,0,0,0
-0.1152,-0.0432,1.0244,1.313,-1.7634,-7.0305,0,0,0
-0.1135,-0.0313,1.0266,1.2519,-0.9847,-8.0763,0,0,0
-0.1045,-0.0061,1.0308,0.4809,0.3817,-5.1298,0,0,0
-0.1284,-0.0266,1.0256,0.0,-0.458,-0.4427,0,0,0
-0.1226,-0.0117,1.0269,0.8855,-3.0076,-2.5191,0,0,0
-0.095,-0.0229,1.0513,-1.4046,-1.8244,-2.7023,0,0,0
-0.0984,-0.0283,1.0259,-2.3664,-1.9237,-2.2366,0,0,0
-0.0977,-0.0383,1.0234,-2.6718,-3.3817,-1.7481,0,0,0
-0.0969,-0.0413,1.0288,-2.4046,-3.6794,-1.4427,0,0,0
-0.0911,-0.0415,1.0237,-1.771,-2.8702,-0.8397,0,0,0
-0.1177,-0.0305,1.0122,-0.084,-3.1374,-2.1374,0,0,0
-0.1272,-0.0222,1.0103,0.9084,-4.0076,-3.7252,0,0,0
-0.0999,0.0024,1.0342,0.8015,-1.6336,-6.0,0,0,0
-0.1023,-0.0193,1.0361,-2.9847,0.4656,0.2672,0,0,0
-0.1309,-0.0349,1.0042,-2.7405,-1.8931,0.8015,0,0,0
-0.103,-0.0325,1.0188,-3.4504,-3.6794,-0.2977,0,0,0
-0.0835,-0.0435,1.0276,-3.5725,-2.313,-0.1298,0,0,0
-0.0898,-0.0471,1.0142,-2.3588,-1.2443,0.374,0,0,0
-0.1055,-0.0344,1.0134,-1.229,-3.145,0.1145,0,0,0
-0.0947,-0.0266,1.0237,-1.1603,-3.5573,0.2443,0,0,0
-0.105,-0.0278,1.0271,-1.542,-2.458,-0.2672,0,0,0
-0.1172,-0.0205,1.0193,-1.8092,-3.2137,-1.0076,0,0,0
-0.0986,-0.0327,1.0229,-2.1298,-4.7252,-0.2595,0,0,0
-0.0886,-0.0183,1.0198,-3.5267,-3.0534,1.4733,0,0,0
-0.106,-0.0386,1.0056,-2.5573,-1.6489,2.9924,0,0,0
-0.103,-0.0247,1.0142,-1.3206,-2.3588,3.084,0,0,0
-0.1101,-0.021,1.0325,-0.687,-3.0076,2.771,0,0,0
-0.1067,-0.0137,1.0356,-1.3588,-3.6031,2.1985,0,0,0
-0.1116,-0.0164,1.0457,-2.6489,-4.2748,0.2901,0,0,0
-0.103,-0.0212,1.0308,-4.0305,-5.5038,-0.5649,0,0,0
-0.0928,-0.0234,1.021,-4.2519,-6.1374,-1.5267,0,0,0
-0.084,-0.0378,1.0247,-2.7786,-4.8702,-1.1603,0,0,0
-0.0881,-0.0352,1.0286,-1.2672,-3.4809,-1.2595,0,0,0
-0.0862,-0.0295,1.0327,-0.9313,-3.3206,-0.7557,0,0,0
-0.0955,-0.0149,1.0342,-2.4046,-3.7786,1.5267,0,0,0
-0.1077,-0.0125,1.0266,-3.6183,-4.855,3.145,0,0,0
-0.1118,-0.0242,1.0281,-4.6718,-6.1832,3.5802,0,0,0
-0.0894,-0.0308,1.0254,-5.0763,-7.4733,3.229,0,0,0
-0.0911,-0.0398,1.0188,-4.5954,-5.8015,1.5267,0,0,0
-0.075,-0.042,1.0222,-3.687,-3.8244,1.5573,0,0,0
-0.0876,-0.0356,1.0249,-2.7557,-2.9008,1.0076,0,0,0
-0.0806,-0.0364,1.0193,-2.6718,-3.2595,-0.0305,0,0,0
-0.073,-0.0371,1.0405,-1.7786,-2.5267,0.1908,0,0,0
-0.0889,-0.0298,1.04,-2.542,-2.0305,0.7481,0,0,0
-0.0981,-0.0176,1.0264,-4.2366,-3.145,0.5496,0,0,0
-0.0916,-0.033,1.0308,-4.4504,-2.7939,1.1374,0,0,0
-0.0916,-0.0273,1.0164,-3.7634,0.3817,0.9313,0,0,0
-0.0942,-0.0354,1.0151,-2.8321,0.9695,-0.4733,0,0,0
-0.0781,-0.0432,1.0212,-1.4198,0.4427,-1.5954,0,0,0
-0.0632,-0.0466,1.0298,-0.0534,1.1603,-1.5038,0,0,0
-0.085,-0.0293,1.0266,0.1298,0.5878,-0.6794,0,0,0
-0.0928,-0.0249,1.0364,-0.4504,-0.5038,-1.5725,0,0,0
-0.0972,-0.0234,1.043,-1.5496,-1.2977,-1.3588,0,0,0
-0.0977,-0.0186,1.021,-3.2824,-2.2137,-1.9924,0,0,0
-0.0876,-0.0225,1.012,-3.9695,-2.2061,0.2214,0,0,0
-0.0898,-0.041,1.0105,-2.0687,-0.8702,1.2214,0,0,0
-0.095,-0.0288,1.0146,0.5878,0.8397,-1.1069,0,0,0
-0.0837,-0.0322,1.0298,1.8168,3.6641,-2.7252,0,0,0
-0.0952,-0.0251,1.0325,2.2748,3.5115,-4.0305,0,0,0
-0.083,-0.0313,1.0342,2.4504,2.9771,-4.1756,0,0,0
-0.0757,-0.0383,1.0425,2.5573,2.9237,-4.4962,0,0,0
-0.0908,-0.0303,1.0244,2.2214,2.3588,-3.6565,0,0,0
-0.0974,-0.0242,1.0239,2.2595,1.9847,-4.0534,0,0,0
-0.1047,-0.0229,1.0215,2.2214,0.6336,-4.6947,0,0,0
-0.1208,-0.0159,1.0232,1.8855,-0.6031,-6.7099,0,0,0
-0.1057,-0.0144,1.032,1.0763,-1.0763,-9.2214,0,0,0
-0.0781,-0.0183,1.0298,-0.626,-0.4656,-9.0,0,0,0
-0.0811,-0.0276,0.9988,-1.5496,0.3053,-5.6107,0,0,0
-0.0876,-0.0474,1.0034,-0.5267,-0.9084,-3.542,0,0,0
-0.0845,-0.0356,1.0139,0.6412,-1.2366,-4.5344,0,0,0
-0.0823,-0.0352,1.0244,0.5725,-0.4656,-4.7557,0,0,0
-0.0728,-0.0415,1.0293,1.7405,1.5267,-4.9618,0,0,0
-0.0876,-0.0251,1.0229,3.229,2.6336,-4.6031,0,0,0
-0.0864,-0.0298,1.0359,2.0534,2.7328,-3.7328,0,0,0
-0.1052,-0.0203,1.0188,1.2748,1.7176,-4.5954,0,0,0
-0.0994,-0.0242,1.0349,0.5344,2.9924,-4.9389,0,0,0
-0.1121,-0.022,1.0256,0.9771,2.7252,-7.2977,0,0,0
-0.0925,-0.0247,1.0195,1.0076,1.4962,-8.8931,0,0,0
-0.0847,-0.0298,1.0249,1.4198,0.3206,-8.5191,0,0,0
-0.0808,-0.0205,1.0256,1.9695,-2.0382,-7.4427,0,0,0
-0.0818,-0.0203,1.0393,0.1679,-3.4351,-5.1221,0,0,0
-0.0881,-0.0264,1.0378,-0.4809,-3.9542,-4.7252,0,0,0
-0.0942,-0.0203,1.0176,-0.3053,-3.6641,-4.6183,0,0,0
-0.0972,-0.0239,1.0122,0.1756,-2.4351,-5.8397,0,0,0
-0.1118,-0.0166,1.001,1.8168,-2.0229,-7.6412,0,0,0
-0.0842,0.0002,1.0181,2.4046,-0.3206,-6.6183,0,0,0
-0.0901,-0.0078,1.0339,1.4275,1.4809,-2.7176,0,0,0
-0.1143,-0.0002,1.0356,0.687,0.5649,-2.9618,0,0,0
-0.0913,-0.0049,1.0479,-1.8092,-0.7176,-4.4122,0,0,0
-0.0867,-0.0159,1.032,-3.3817,-1.3969,-4.9924,0,0,0
-0.0828,-0.0298,1.0164,-2.6336,-2.1069,-4.8092,0,0,0
-0.0811,-0.0381,1.0134,-0.4733,-1.8321,-5.1832,0,0,0
-0.0913,-0.0271,1.0049,1.0382,-1.2672,-5.542,0,0,0
-0.0706,-0.0383,1.0142,2.4733,-0.9924,-7.1145,0,0,0
-0.0793,-0.0398,1.0269,5.4504,2.3435,-8.8321,0,0,0
-0.115,-0.0146,1.0139,7.3282,4.2366,-11.2672,0,0,0
-0.1299,-0.0112,1.0151,7.4504,2.3282,-14.6794,0,0,0
-0.1213,-0.0076,1.0237,7.7863,-0.9847,-16.9389,0,0,0
-0.0967,-0.0049,1.0435,6.3282,-3.4504,-15.6947,0,0,0
-0.0752,-0.001,1.0549,3.4656,-5.0153,-13.6947,0,0,0
-0.0654,-0.0007,1.0508,2.9008,-4.9237,-11.2824,0,0,0
-0.0452,-0.0081,1.0522,0.9771,-0.8397,-11.9771,0,0,0
-0.0674,-0.0171,1.0073,1.4656,5.1145,-13.8168,0,0,0
-0.0867,-0.0266,0.9854,4.5496,7.3359,-14.0534,0,0,0
-0.104,-0.0151,0.9819,7.8092,6.9695,-13.6565,0,0,0
-0.1082,-0.0027,1.0051,9.542,5.7634,-13.2748,0,0,0
-0.0933,0.0007,1.0261,9.5649,6.4351,-14.0992,0,0,0
-0.0896,0.0005,1.0374,9.5649,7.5344,-15.3664,0,0,0
-0.1094,0.0039,1.0181,9.5878,5.8244,-14.5954,0,0,0
-0.1094,-0.002,1.0066,10.4275,4.2824,-15.4122,0,0,0
-0.1162,0.0137,0.9944,11.1221,4.1832,-16.855,0,0,0
-0.1377,0.0291,1.0254,9.6412,1.2748,-15.626,0,0,0
-0.1116,0.0273,1.0593,5.916,-2.8168,-12.1832,0,0,0
-0.1018,0.031,1.0698,2.6412,-5.1145,-9.8473,0,0,0
-0.0984,0.0298,1.0474,-1.2748,-6.1374,-8.687,0,0,0
-0.0752,0.0039,1.0283,-2.1679,-3.9695,-8.6794,0,0,0
-0.0762,-0.0088,1.0139,0.3817,-0.5267,-7.3664,0,0,0
-0.0859,-0.0027,1.009,2.8015,0.8015,-5.1756,0,0,0
-0.0945,-0.0061,1.0229,3.458,0.3359,-3.313,0,0,0
-0.0981,0.0098,1.0276,2.7557,-1.687,-2.5725,0,0,0
-0.0906,0.0139,1.0439,0.916,-2.2672,-1.9618,0,0,0
-0.0842,0.0103,1.0444,-0.7023,-1.6336,-1.687,0,0,0
-0.0879,0.0176,1.0315,-1.4656,-1.5878,-0.7863,0,0,0
-0.0918,0.0112,1.0356,-2.4733,-0.5115,-0.145,0,0,0
-0.084,0.0112,1.0327,-2.9542,0.7099,1.7328,0,0,0
-0.0959,0.012,1.021,-3.6031,0.6718,4.1145,0,0,0
-0.0959,0.0183,1.0256,-5.458,-0.6336,10.5573,0,0,0
-0.0825,0.0076,1.0337,-8.626,-2.0916,19.8855,0,0,0
-0.0969,0.0181,1.0205,-11.3435,-3.8855,29.2977,0,0,0
-0.0613,-0.0203,1.0251,-11.8931,-3.4809,38.1832,0,0,0
-0.0735,-0.0232,1.0024,-9.9237,-0.855,39.1298,0,0,0
-0.074,-0.0127,1.0149,-8.2595,1.7405,36.7328,0,0,0
-0.0991,-0.0076,1.032,-7.3206,2.3435,34.0763,0,0,0
-0.0913,0.0,1.0505,-6.1374,2.5038,31.0153,0,0,0
-0.1221,0.0081,1.0459,-6.2519,-0.1985,26.2519,0,0,0
-0.1255,0.0476,1.0286,-8.0153,-4.6336,22.3893,0,0,0
-0.113,0.033,1.0361,-11.8931,-7.0,27.145,0,0,0
-0.085,0.021,1.031,-14.0229,-5.8855,31.8473,0,0,0
-0.0669,-0.0032,1.019,-13.1527,-0.5878,28.5649,0,0,0
-0.0688,-0.02,1.0261,-11.1374,4.3664,23.5954,0,0,0
-0.094,-0.0203,1.0059,-9.1679,7.1374,20.0,0,0,0
-0.1121,0.0037,1.0098,-6.8244,5.6718,16.9847,0,0,0
-0.1021,0.0007,1.0129,-7.3664,3.3282,17.5267,0,0,0
-0.1301,-0.0073,1.0063,-5.1832,1.3282,14.2214,0,0,0
-0.1396,0.0105,1.01,-3.3664,-1.6565,9.0687,0,0,0
-0.1221,0.0217,1.0244,-3.4504,-3.1679,4.8855,0,0,0
-0.1057,0.0156,1.0266,-5.4809,-2.145,6.7405,0,0,0
-0.0957,0.0017,1.0178,-5.7939,-2.2748,6.6947,0,0,0
-0.0576,-0.0078,1.0369,-7.7176,2.0992,10.0458,0,0,0
-0.1003,-0.0168,1.0234,-6.4046,4.0916,9.7481,0,0,0
-0.0969,-0.0042,1.0261,-6.229,2.2061,8.6794,0,0,0
-0.0964,-0.0103,1.0344,-7.7557,2.5725,9.458,0,0,0
-0.1133,-0.0205,1.0149,-6.8473,1.4733,7.1527,0,0,0
-0.1179,-0.0205,1.021,-4.8168,0.0153,3.7481,0,0,0
-0.0747,-0.0166,1.0378,-5.5878,1.0611,4.5954,0,0,0
-0.0676,-0.0051,1.032,-7.8015,3.2214,9.7939,0,0,0
-0.0793,-0.0232,1.0339,-9.7328,4.0,15.8473,0,0,0
-0.0911,-0.0166,1.0391,-10.3511,5.5038,16.2443,0,0,0
-0.0996,-0.0049,1.0396,-11.5802,8.1832,16.7863,0,0,0
-0.1021,0.012,1.0654,-16.2595,12.2519,17.3511,0,0,0
-0.124,-0.0142,1.0291,-19.7099,9.9008,19.4275,0,0,0
-0.1287,-0.0269,1.0127,-18.9084,5.7863,19.542,0,0,0
-0.1025,-0.0361,1.0212,-19.5725,4.5038,20.687,0,0,0
-0.0964,-0.0488,1.0269,-18.7405,9.2748,18.7939,0,0,0
-0.0193,0.0156,1.0479,-22.3664,14.2519,27.4656,0,0,0
