ax,ay,az,gx,gy,gz,left_click,right_click
-0.1892,0.0564,1.0022,-2.0382,-0.8015,-0.4427,0,0,0
-0.189,0.0557,1.0054,-1.8702,-0.8015,-1.0458,0,0,0
-0.1924,0.0471,1.0095,-1.4427,-0.7405,-1.2824,0,0,0
-0.1956,0.0481,1.0193,-1.2672,-0.626,-0.8168,0,0,0
-0.2007,0.0369,1.0247,-1.6718,-0.3206,-0.4809,0,0,0
-0.1941,0.0435,1.019,-1.5573,-0.0534,0.0687,0,0,0
-0.1895,0.0579,1.0132,-2.2519,0.0534,0.2977,0,0,0
-0.1816,0.0664,1.0046,-2.2824,-0.1756,-0.0305,0,0,0
-0.1841,0.064,1.0005,-1.5191,-0.7023,-1.2061,0,0,0
-0.1833,0.0605,1.0054,-1.2748,-0.9924,-2.374,0,0,0
-0.1921,0.0459,1.0098,-0.9847,-1.0382,-2.2366,0,0,0
-0.1948,0.0432,1.0034,-1.6412,-0.6031,-1.6565,0,0,0
-0.1963,0.0391,1.0107,-2.4122,-1.0382,-0.5496,0,0,0
-0.1921,0.0349,1.0288,-2.9695,-0.916,-0.4275,0,0,0
-0.1958,0.033,1.0266,-1.9847,-0.4427,-0.0992,0,0,0
-0.1931,0.0432,1.0105,-0.5802,0.7786,0.2901,0,0,0
-0.1892,0.0583,0.999,-1.1908,0.2137,0.1985,0,0,0
-0.1919,0.0645,0.9988,-0.8779,-0.5191,-0.4504,0,0,0
-0.1958,0.0581,0.9985,-1.0534,-1.0992,-0.7634,0,0,0
-0.1885,0.052,1.0154,-1.8702,-1.1756,-1.1908,0,0,0
-0.1934,0.0496,1.0234,-2.5954,-0.8168,-1.1985,0,0,0
-0.1921,0.0491,1.0259,-3.2443,0.0992,-1.1374,0,0,0
-0.1941,0.0493,1.0183,-3.3969,0.6412,-0.6183,0,0,0
-0.1899,0.0522,1.011,-3.2595,0.6412,-0.5649,0,0,0
-0.1907,0.0571,0.9968,-1.8626,0.3511,-1.0992,0,0,0
-0.1899,0.0579,0.9968,-1.5191,-0.4122,-1.3664,0,0,0
-0.196,0.0457,1.0071,-1.8321,-1.2519,-1.4198,0,0,0
-0.1948,0.042,1.0129,-1.0687,-1.1069,-0.7328,0,0,0
-0.1936,0.0361,1.0195,-1.2366,-0.3206,-0.5573,0,0,0
-0.1948,0.0378,1.0156,-1.5267,-0.3359,-0.5267,0,0,0
-0.1931,0.0439,1.0071,-1.7557,-0.1298,-0.229,0,0,0
-0.1921,0.0432,1.0073,-1.0458,-0.687,-0.0763,0,0,0
-0.1941,0.0552,0.9875,-0.8168,-0.9695,-0.4351,0,0,0
-0.1921,0.0522,0.999,-0.9542,-1.5954,-0.4122,0,0,0
-0.1938,0.0564,1.0095,-0.687,-2.084,-0.3817,0,0,0
-0.1958,0.0532,1.0178,-0.458,-1.5573,-1.0305,0,0,0
-0.1926,0.0459,1.0195,-0.5267,-1.3206,-0.5496,0,0,0
-0.1914,0.0396,1.0129,-0.458,-1.0,-0.4504,0,0,0
-0.1929,0.0542,1.0046,-1.1145,-1.1374,0.0305,0,0,0
-0.1951,0.0493,1.0137,-1.5649,-1.2137,-0.0992,0,0,0
-0.1887,0.053,1.0151,-1.4275,-1.542,-0.3588,0,0,0
-0.1895,0.0588,1.0068,-1.3206,-1.3053,-0.3435,0,0,0
-0.1887,0.0559,1.012,-2.1374,-1.3969,-0.7557,0,0,0
-0.1836,0.0532,1.0227,-1.9237,-0.9542,-0.6947,0,0,0
-0.1863,0.0508,1.0171,-1.6718,-0.2977,-0.9008,0,0,0
-0.1892,0.054,1.0115,-1.687,-0.2519,-0.8397,0,0,0
-0.1926,0.0522,1.0044,-0.6947,-0.3206,-1.2137,0,0,0
-0.1917,0.053,0.9946,-1.2977,-1.1527,-1.1145,0,0,0
-0.1926,0.0427,1.0171,-1.6641,-1.3969,-0.9847,0,0,0
-0.1892,0.0466,1.0181,-1.7481,-0.4809,-0.9008,0,0,0
-0.1904,0.051,1.0127,-1.7863,-0.229,-0.1985,0,0,0
-0.187,0.0562,1.0029,-2.4198,-0.0229,-0.3817,0,0,0
-0.1848,0.053,1.0132,-2.7023,-0.5115,-0.8321,0,0,0
-0.1873,0.0554,1.0073,-2.2977,-1.1298,-1.0458,0,0,0
-0.1948,0.0542,1.0107,-1.3588,-0.5878,-1.0305,0,0,0
-0.1931,0.0461,1.0078,-1.229,-0.9847,-0.9924,0,0,0
-0.1943,0.0513,1.001,-1.0305,-1.5115,-0.7252,0,0,0
-0.1882,0.0642,1.0007,0.6183,-2.0,-1.0229,0,0,0
-0.1846,0.0581,0.9937,1.084,-2.7939,-1.5191,0,0,0
-0.1848,0.0427,1.0232,-0.6718,-3.3282,-1.4656,0,0,0
-0.1877,0.0417,1.051,-1.8855,-1.7328,-0.9618,0,0,0
-0.1838,0.0461,1.0452,-2.7405,0.6336,-0.1603,0,0,0
-0.1836,0.0627,1.0159,-3.0916,2.0916,-0.0458,0,0,0
-0.1821,0.0693,0.9905,-3.8168,1.2519,-0.5954,0,0,0
-0.1909,0.0598,0.9941,-2.7481,0.0534,-1.7786,0,0,0
-0.1885,0.0554,0.9912,-1.5038,-0.5954,-2.3206,0,0,0
-0.1938,0.0359,1.0083,-1.3511,-1.3435,-2.0153,0,0,0
-0.1982,0.0347,1.0144,-1.0992,-1.1603,-1.1985,0,0,0
-0.1887,0.0408,1.012,-1.6489,-0.855,-0.3969,0,0,0
-0.1921,0.0469,1.0085,-1.1298,-1.084,0.0534,0,0,0
-0.1917,0.0579,1.0068,-0.7863,-1.5191,-0.5954,0,0,0
-0.1851,0.0508,1.0098,-1.0611,-1.6031,-0.4656,0,0,0
-0.1819,0.063,1.0186,-1.7786,-1.771,-0.6718,0,0,0
-0.1792,0.0596,1.0149,-1.2824,-1.0076,-0.1603,0,0,0
-0.1807,0.0596,1.0154,-1.4046,-0.6107,-1.0153,0,0,0
-0.1777,0.0576,1.0078,-1.5725,-0.7176,-1.4122,0,0,0
-0.1846,0.0466,1.0222,-1.6489,-0.0763,-1.2519,0,0,0
-0.187,0.0496,1.0193,-2.145,0.1756,-0.855,0,0,0
-0.1799,0.0479,1.011,-2.6641,0.4809,-0.9084,0,0,0
-0.1904,0.0515,1.0083,-2.0305,0.542,-0.6641,0,0,0
-0.1919,0.0557,1.002,-1.4504,0.4122,-1.1069,0,0,0
-0.1885,0.0437,0.9958,-2.0992,-0.5725,-0.9618,0,0,0
-0.1909,0.0466,1.0076,-2.0534,-1.084,-0.5649,0,0,0
-0.1921,0.0442,1.0046,-0.4504,-0.9695,-0.7786,0,0,0
-0.1885,0.041,0.9993,-0.3282,-1.4427,-0.1832,0,0,0
-0.1953,0.0496,1.0115,-0.0763,-1.7176,-0.3206,0,0,0
-0.1931,0.0505,1.0193,-0.1374,-1.2672,-0.1527,0,0,0
-0.1873,0.052,1.0137,-0.7405,-1.0534,0.0153,0,0,0
-0.1877,0.0586,1.0193,-2.0153,-0.4962,0.3206,0,0,0
-0.1812,0.0615,1.0164,-1.9695,0.3282,0.0153,0,0,0
-0.1858,0.0601,1.0032,-2.0611,0.3053,-0.5038,0,0,0
-0.1875,0.0586,1.0085,-1.8321,0.1679,-1.0458,0,0,0
-0.1929,0.0574,1.0032,-1.7863,-0.1756,-1.3053,0,0,0
-0.189,0.0532,1.0222,-2.458,-0.0153,-0.7939,0,0,0
-0.1921,0.0378,1.0061,-2.2366,-0.0992,-0.4198,0,0,0
-0.1985,0.062,1.0229,-1.7023,-0.4046,-0.1832,0,0,0
-0.1821,0.0437,1.0134,-1.1679,0.3893,-0.8397,0,0,0
-0.1858,0.0513,1.0022,-1.145,0.084,-0.7939,0,0,0
-0.187,0.0579,1.0039,-1.5878,-0.0916,-0.9466,0,0,0
-0.1907,0.0449,1.0105,-1.855,-0.7863,-0.9542,0,0,0
-0.1829,0.0442,1.022,-2.3664,-0.6641,-0.5267,0,0,0
-0.1821,0.0442,1.0242,-2.2901,0.0,-0.0687,0,0,0
-0.187,0.0527,1.02,-1.0687,0.9542,0.0382,0,0,0
-0.1863,0.0515,1.0056,-1.3893,0.6718,0.0916,0,0,0
-0.1917,0.0532,0.9978,-1.6641,-0.0992,0.8855,0,0,0
-0.1985,0.0422,1.0068,-2.3817,-0.7405,1.4733,0,0,0
-0.2041,0.0256,1.0083,-3.4656,-0.3664,2.9924,0,0,0
-0.2166,0.0422,0.9536,-17.5344,3.2977,2.6412,0,0,0
-0.1809,-0.0171,0.9453,-24.2901,5.5038,10.4656,0,0,0
-0.2441,-0.0413,0.9316,-30.8702,4.0534,19.2366,0,0,0
-0.2375,0.0093,0.938,-34.2824,1.1679,24.626,0,0,0
-0.1907,0.0439,0.9995,-30.0076,-1.0,24.4885,0,0,0
-0.1428,0.0552,1.04,-24.5496,-3.4427,19.3511,0,0,0
-0.1272,0.0444,1.0901,-15.6947,-3.9924,13.2672,0,0,0
-0.1484,0.0422,1.1221,-8.5573,-3.7557,7.8092,0,0,0
-0.2017,-0.0061,1.094,-4.6947,-2.6489,6.3664,0,0,0
-0.2202,-0.0291,1.0713,-0.916,-0.2977,9.8015,0,0,0
-0.2,-0.0154,1.041,-2.313,3.5267,14.4504,0,0,0
-0.1921,0.0159,1.0256,-8.2519,9.0305,16.7481,0,0,0
-0.1914,0.0144,0.9883,-10.3435,8.4351,20.7557,0,0,0
-0.1956,0.0544,0.9819,-9.7939,8.2977,21.4046,0,0,0
-0.1929,0.0591,0.9868,-9.7252,7.3282,18.5802,0,0,0
-0.187,0.0344,0.9612,-8.4198,4.0076,16.4504,0,0,0
-0.2041,0.0356,0.9868,-7.2061,2.0153,14.5954,0,0,0
-0.2061,0.0251,0.9902,-8.3664,1.229,12.3053,0,0,0
-0.2014,0.0244,0.991,-5.9542,0.0534,12.9389,0,0,0
-0.1992,0.04,0.9924,-4.5038,-0.0229,11.8015,0,0,0
-0.2114,0.0381,0.978,-6.8473,-2.1603,10.3359,0,0,0
-0.2161,0.0317,1.0034,-6.7863,-3.8015,9.5954,0,0,0
-0.1953,0.0286,1.03,-4.7786,-3.8931,8.8321,0,0,0
-0.1797,0.0371,1.0305,-3.9237,-3.1603,7.6336,0,0,0
-0.1729,0.053,1.0271,-1.4046,-3.3359,5.2595,0,0,0
-0.1729,0.0586,1.0366,0.0763,-3.7176,1.9847,0,0,0
-0.1758,0.0515,1.0269,2.7328,-4.2061,-0.2824,0,0,0
-0.1824,0.0369,1.0173,3.0534,-3.8626,-1.8397,0,0,0
-0.187,0.0376,0.9995,2.145,-3.5267,-1.5802,0,0,0
-0.1836,0.0339,0.998,0.8168,-3.0153,-0.5344,0,0,0
-0.1809,0.054,1.002,-1.1374,-2.4427,-0.4504,0,0,0
-0.1763,0.0437,1.0068,-3.9084,-2.2366,-1.4122,0,0,0
-0.1787,0.0352,1.0244,-2.0382,-2.4504,-2.2366,0,0,0
-0.1787,0.0315,1.0454,-0.4962,-2.7863,-3.8244,0,0,0
-0.1814,0.0237,1.051,1.1527,-2.5954,-5.4427,0,0,0
-0.1794,0.0225,1.053,3.9084,-2.1832,-6.2366,0,0,0
-0.1711,0.0327,1.0369,6.8244,-1.9924,-7.2595,0,0,0
-0.1677,0.0513,1.0159,6.8855,-2.6489,-9.3206,0,0,0
-0.1548,0.0645,1.0063,8.4275,-4.3664,-12.313,0,0,0
-0.1343,0.094,1.0066,13.2519,-6.6641,-17.1145,0,0,0
-0.1099,0.1318,0.9998,19.4427,-11.2901,-24.9924,0,0,0
-0.1123,0.1606,0.9846,27.7405,-17.5114,-36.2443,0,0,0
-0.1287,0.1538,0.9954,32.0305,-23.4885,-48.2214,0,0,0
-0.1345,0.0911,1.0303,35.2366,-27.7863,-54.0916,0,0,0
-0.2659,0.0349,1.2524,32.5725,-20.1679,-53.6183,0,0,0
-0.2742,-0.1301,1.1987,25.7099,-0.0458,-43.8244,0,0,0
-0.2185,-0.1323,1.0476,18.2061,3.7252,-23.084,0,0,0
-0.2029,0.0005,1.0234,13.4962,7.313,-11.0992,0,0,0
-0.1799,0.0776,0.9602,11.2061,10.3817,-10.4733,0,0,0
-0.187,0.0732,0.8872,10.7252,5.7939,-11.2824,0,0,0
-0.2061,0.0667,0.9102,6.1221,-0.1527,-12.7023,0,0,0
-0.2222,0.0618,0.96,0.9924,-1.313,-13.1603,0,0,0
-0.1846,0.0203,1.0222,5.0076,-3.458,-11.4733,0,0,0
-0.1758,0.0559,1.0322,7.374,-3.626,-12.0382,0,0,0
-0.1558,0.0649,1.041,13.9466,-3.8779,-13.9389,0,0,0
-0.1431,0.0991,1.0623,25.9389,-7.1832,-15.1374,0,0,0
-0.1541,0.1255,1.093,26.5954,-3.9466,-19.4656,0,0,0
-0.166,0.0808,1.0408,22.4504,-2.8473,-19.6412,0,0,0
-0.1538,0.0786,1.0747,18.0763,0.145,-16.6489,0,0,0
-0.1648,0.1018,1.0427,14.0458,4.6794,-15.1908,0,0,0
-0.1599,0.113,0.9966,10.9313,7.771,-13.855,0,0,0
-0.1663,0.1243,0.9585,8.687,7.6336,-14.3893,0,0,0
-0.1792,0.1182,0.9541,3.8855,7.3435,-14.4656,0,0,0
-0.2146,0.0854,0.9851,-7.5573,4.0,-8.4885,0,0,0
-0.2134,0.0161,0.9917,-10.5725,3.7557,-4.3206,0,0,0
-0.2187,0.0293,1.0227,-8.5496,4.3588,0.0763,0,0,0
-0.2046,0.0291,1.0164,-5.4885,4.7252,1.7328,0,0,0
-0.1956,0.0603,1.0195,-4.9389,3.5725,2.5344,0,0,0
-0.1907,0.0627,1.0535,-6.4885,4.1603,2.9389,0,0,0
-0.1848,0.0554,1.0679,-10.1756,6.8473,4.1985,0,0,0
-0.1848,0.0491,1.1013,-14.2214,10.7023,6.1985,0,0,0
-0.1921,0.0547,1.1685,-12.5954,18.0153,9.1908,0,0,0
-0.188,0.0535,1.1829,-10.5191,27.3664,12.2977,0,0,0
-0.1943,0.0559,1.1729,-16.0153,37.6412,15.8626,0,0,0
-0.187,0.042,1.1147,-18.6183,45.3588,20.6794,0,0,0
-0.2043,0.0544,1.0566,-17.145,51.6031,23.9389,0,0,0
-0.2,0.0828,0.9951,-17.8015,51.3817,24.0153,0,0,0
-0.22,0.1128,0.9753,-19.7481,48.3206,20.9542,0,0,0
-0.2375,0.0974,0.9629,-19.0076,45.0382,17.3053,0,0,0
-0.2415,0.0918,0.9614,-17.2519,42.7176,14.2595,0,0,0
-0.2549,0.0747,0.9539,-14.0458,39.8931,12.3282,0,0,0
-0.2493,0.074,0.9155,-9.2137,35.8397,11.4351,0,0,0
-0.2676,0.0754,0.9106,-1.8931,30.3893,10.771,0,0,0
-0.2708,0.1113,0.9189,2.9466,24.9389,6.7481,0,0,0
-0.2695,0.1169,0.9275,2.3359,20.4656,1.5878,0,0,0
-0.2817,0.0818,0.9399,0.9695,17.3435,-1.0,0,0,0
-0.2917,0.0613,0.9705,3.7939,15.5802,-0.5496,0,0,0
-0.282,0.0588,0.9878,6.4656,15.8931,0.3435,0,0,0
-0.2854,0.0732,1.0034,7.229,16.5878,0.8321,0,0,0
-0.2957,0.0693,1.0171,4.9389,18.916,-0.0534,0,0,0
-0.3003,0.0552,0.9954,4.626,21.2672,0.9466,0,0,0
-0.302,0.0718,0.9456,6.0,20.771,2.8702,0,0,0
-0.3145,0.1028,0.8909,9.2748,17.2519,3.0916,0,0,0
-0.3037,0.136,0.8364,12.0,11.6412,0.084,0,0,0
-0.3042,0.158,0.7976,8.1832,4.0458,-4.9924,0,0,0
-0.3164,0.1287,0.8203,2.6031,-4.3588,-8.6794,0,0,0
-0.3169,0.1121,0.8223,1.8702,-10.5878,-10.5115,0,0,0
-0.3162,0.1077,0.8323,3.0,-16.2748,-12.2672,0,0,0
-0.313,0.0986,0.8262,5.2824,-22.4198,-13.5725,0,0,0
-0.3027,0.1096,0.8225,4.145,-30.0305,-15.7099,0,0,0
-0.2827,0.1199,0.8325,3.2519,-37.8321,-18.2214,0,0,0
-0.2769,0.1221,0.8381,2.1221,-43.9695,-22.2901,0,0,0
-0.2744,0.115,0.7983,1.3969,-51.0076,-25.4962,0,0,0
-0.2495,0.1313,0.8013,0.0534,-58.3435,-26.8779,0,0,0
-0.2561,0.1099,0.8401,-4.771,-66.1679,-28.6565,0,0,0
-0.2527,0.0759,0.897,-11.2672,-71.1221,-30.0916,0,0,0
-0.2449,0.0483,1.01,-17.1145,-72.3206,-28.0076,0,0,0
-0.2476,-0.01,1.1162,-18.1908,-64.9771,-21.3588,0,0,0
-0.228,-0.0247,1.3357,-9.2137,-53.8244,-9.5878,0,0,0
-0.2825,-0.0801,1.3315,-13.8779,-34.2214,-0.0992,0,0,0
-0.2656,-0.1423,1.3696,-17.5344,-16.0916,11.6489,0,0,0
-0.2339,-0.092,1.3208,-18.5344,-2.9389,20.0611,0,0,0
-0.1479,-0.0129,1.2925,-9.7099,7.2061,23.8168,0,0,0
-0.1399,0.1057,1.1567,0.6107,12.7863,17.0076,0,0,0
-0.0935,0.1484,1.0391,12.3588,12.1069,9.5573,0,0,0
-0.1062,0.2297,0.957,19.0382,6.5267,-1.6565,0,0,0
-0.1487,0.2588,0.9248,18.2366,-0.229,-14.916,0,0,0
-0.1548,0.1885,0.9695,13.8931,-4.1145,-23.9847,0,0,0
-0.1582,0.1348,1.0547,9.5802,-1.5649,-25.8092,0,0,0
-0.1553,0.126,1.0703,6.9924,2.8015,-23.8855,0,0,0
-0.1682,0.1543,1.1101,0.3664,10.4122,-24.9542,0,0,0
-0.1719,0.1353,1.0796,-6.0992,16.9847,-27.145,0,0,0
-0.1794,0.0989,1.0828,-8.5878,19.374,-27.5038,0,0,0
-0.1934,0.0933,1.0681,-8.7405,21.6489,-27.9695,0,0,0
-0.2007,0.0696,1.0679,-1.2214,22.5114,-29.4427,0,0,0
-0.2156,0.0989,1.0264,8.0076,21.3206,-33.7786,0,0,0
-0.2139,0.0818,0.9639,20.3282,15.4733,-38.8244,0,0,0
-0.2229,0.1145,0.9836,29.7099,10.1374,-44.6336,0,0,0
-0.2141,0.0918,0.9956,36.313,7.7786,-46.4275,0,0,0
-0.1919,0.1167,1.0269,39.084,8.6641,-50.4275,0,0,0
-0.2041,0.082,1.0073,43.8855,8.7328,-51.4885,0,0,0
-0.196,0.1685,1.0137,40.8244,10.5802,-56.1603,0,0,0
-0.2102,0.1667,1.0237,33.1221,10.9008,-60.5267,0,0,0
-0.2246,0.1248,1.0264,23.084,12.2214,-63.2748,0,0,0
-0.248,0.0784,1.0874,15.687,16.3893,-61.2977,0,0,0
-0.2544,0.009,1.1228,12.2977,23.3588,-55.145,0,0,0
-0.2813,-0.0215,1.1807,10.5649,33.229,-45.229,0,0,0
-0.2935,-0.0437,1.165,11.8092,45.1145,-33.7099,0,0,0
-0.2839,-0.0186,1.0696,20.374,53.4427,-23.4122,0,0,0
-0.2788,0.0596,0.9565,21.5114,56.0076,-18.3359,0,0,0
-0.2988,0.0906,0.8511,17.5496,51.8168,-19.8168,0,0,0
-0.3069,0.1194,0.7847,17.8168,42.2977,-21.4198,0,0,0
-0.3232,0.1172,0.7488,18.1679,32.9084,-24.7176,0,0,0
-0.3337,0.1062,0.7363,14.1832,22.2748,-27.084,0,0,0
-0.3569,0.0784,0.7434,7.916,13.1145,-27.8473,0,0,0
-0.3779,0.0308,0.7622,4.2366,5.8626,-24.9618,0,0,0
-0.3945,0.0151,0.7944,0.8626,0.6718,-19.5802,0,0,0
-0.4043,0.0046,0.8684,-6.2977,-1.6489,-12.7252,0,0,0
-0.4031,-0.0105,0.9246,-13.2672,-1.0534,-4.7634,0,0,0
-0.3943,-0.0347,0.9878,-15.0076,1.855,4.9542,0,0,0
-0.374,-0.0071,1.0054,-12.1221,5.4733,12.2366,0,0,0
-0.3657,0.0464,0.9985,-9.1679,6.1756,14.7023,0,0,0
-0.3503,0.075,0.9819,-6.3664,3.4962,12.9542,0,0,0
-0.3369,0.094,0.97,-1.6489,-0.084,9.4198,0,0,0
-0.3311,0.1089,0.9766,1.2519,-3.7252,4.7634,0,0,0
-0.3259,0.0864,0.9854,4.9237,-4.5725,2.4733,0,0,0
-0.3289,0.0823,0.9927,8.145,-3.2977,3.084,0,0,0
-0.3323,0.0901,0.9946,9.4885,-1.4504,4.8321,0,0,0
-0.3289,0.0994,1.0168,8.0458,2.7328,6.9771,0,0,0
-0.3179,0.127,0.9839,4.9695,6.9313,8.3588,0,0,0
-0.3162,0.146,0.9409,0.6489,8.0458,8.5191,0,0,0
-0.3215,0.1638,0.9124,-0.9618,6.0458,6.5954,0,0,0
-0.3254,0.1719,0.9082,-1.8244,2.8931,4.0763,0,0,0
-0.3274,0.1587,0.9331,-3.8092,-0.6947,1.1985,0,0,0
-0.3354,0.1348,0.9773,-5.3206,-2.3893,-1.0076,0,0,0
-0.3481,0.1226,1.0022,-2.9084,-0.7099,-0.9237,0,0,0
-0.342,0.1025,0.9954,1.3053,2.0305,-0.1679,0,0,0
-0.3481,0.1211,0.9575,2.4962,2.4809,0.3969,0,0,0
-0.3401,0.124,0.9192,3.0305,0.5115,0.229,0,0,0
-0.3354,0.1294,0.9351,2.2824,-1.1603,0.1374,0,0,0
-0.3264,0.1238,0.9426,-1.626,-2.0534,-0.6107,0,0,0
-0.3281,0.0925,0.968,-2.4885,-1.1756,0.0534,0,0,0
-0.3345,0.1123,0.981,-0.4656,-0.7634,1.8626,0,0,0
-0.3438,0.1335,0.9617,-3.4809,0.2672,0.1679,0,0,0
-0.3367,0.1157,0.9377,-0.7023,-1.5038,0.313,0,0,0
-0.3271,0.1287,0.9456,-1.5344,-2.4504,-0.4962,0,0,0
-0.3274,0.1111,0.9607,-1.4962,-2.5191,-0.2977,0,0,0
-0.3254,0.1257,0.959,-0.6107,-2.5115,0.2901,0,0,0
-0.3293,0.1292,0.9648,-3.9924,-3.0382,-0.5725,0,0,0
-0.3296,0.125,0.9766,-3.7481,-3.7252,-1.4427,0,0,0
-0.3301,0.1162,0.9834,-1.5191,-3.916,-1.9924,0,0,0
-0.3369,0.1094,0.9846,-0.9695,-3.5496,-3.0916,0,0,0
-0.3364,0.0989,0.9949,-0.3282,-2.1832,-2.7405,0,0,0
-0.3416,0.0981,1.0017,0.2366,-0.2519,-1.0763,0,0,0
-0.3457,0.1003,0.9805,1.1756,2.0229,0.5725,0,0,0
-0.3367,0.1204,0.9675,0.0229,3.1756,1.3359,0,0,0
-0.3323,0.1245,0.937,0.4427,2.0611,1.4962,0,0,0
-0.3262,0.1353,0.9153,1.8931,0.4809,0.8702,0,0,0
-0.3174,0.1431,0.9194,1.1145,-1.6947,-0.5954,0,0,0
-0.3218,0.1401,0.948,-1.3359,-3.5038,-2.1679,0,0,0
-0.3306,0.1252,0.9619,-3.2061,-3.6031,-2.9084,0,0,0
-0.335,0.1174,0.9712,-4.0992,-3.0458,-2.6718,0,0,0
-0.3342,0.1118,0.968,-4.8168,-2.626,-2.2366,0,0,0
-0.3384,0.1208,0.9746,-4.6641,-1.1069,-1.8321,0,0,0
-0.3364,0.1016,0.9609,-3.4809,-0.4122,-1.0763,0,0,0
-0.3362,0.1006,0.9683,-3.5649,-1.2595,0.0076,0,0,0
-0.3389,0.1099,0.9788,-5.3817,-1.1374,-0.0534,0,0,0
-0.3374,0.1077,0.9756,-4.2366,-0.4122,0.4504,0,0,0
-0.3301,0.1135,0.9666,-3.3664,-0.3588,0.9618,0,0,0
-0.3354,0.1143,0.9644,-3.9847,-0.7328,-0.0229,0,0,0
-0.3352,0.1167,0.9568,-1.6489,-1.3206,-0.5344,0,0,0
-0.3333,0.1169,0.9497,-0.0611,-2.3435,-1.0229,0,0,0
-0.3259,0.1221,0.9507,0.6489,-3.5725,-1.1221,0,0,0
-0.3291,0.1155,0.9651,-0.4504,-3.3359,-1.5496,0,0,0
-0.332,0.1133,0.9543,-0.4046,-2.7557,-0.8855,0,0,0
-0.325,0.1189,0.9485,-2.3664,-3.0763,-0.626,0,0,0
-0.3289,0.1138,0.9617,-7.2214,-4.5115,-0.8168,0,0,0
-0.3276,0.1047,0.9956,-9.6718,-3.3893,-0.0763,0,0,0
-0.332,0.0991,1.0161,-5.5725,-0.4122,0.7023,0,0,0
-0.3303,0.1052,1.0002,-1.8168,1.4733,1.8397,0,0,0
-0.3228,0.1165,0.9814,-1.2519,1.2061,1.9313,0,0,0
-0.3152,0.1316,0.9695,-0.3969,0.9008,0.6947,0,0,0
-0.3123,0.1345,0.9624,-1.4809,1.1756,-0.4046,0,0,0
-0.3142,0.1323,0.95,-3.1374,0.2748,-1.4351,0,0,0
-0.3235,0.1321,0.9438,-5.2366,-0.7863,-3.1679,0,0,0
-0.3359,0.114,0.9377,-4.7786,-2.0229,-3.2901,0,0,0
-0.3403,0.1077,0.9397,-4.5191,-2.5878,-2.8626,0,0,0
-0.334,0.1074,0.9407,-5.542,-3.2977,-1.8244,0,0,0
-0.3394,0.0933,0.959,-5.2977,-3.3511,-0.7328,0,0,0
-0.335,0.0908,0.9834,-4.2443,-2.3817,0.8321,0,0,0
-0.333,0.0925,0.9944,-4.1374,-1.6641,1.1908,0,0,0
-0.3347,0.0989,0.9861,-3.1756,-1.7252,0.7405,0,0,0
-0.3225,0.1021,0.9797,-2.3435,-2.4656,0.3359,0,0,0
-0.3267,0.1011,0.9731,-2.2977,-2.5115,-0.313,0,0,0
-0.3284,0.1013,0.968,-2.9313,-2.5649,-0.5954,0,0,0
-0.3298,0.0972,0.9697,-2.7176,-2.3893,0.1985,0,0,0
-0.3296,0.1096,0.9497,-2.7328,-2.0992,0.5191,0,0,0
-0.3215,0.1057,0.9397,-4.2977,-2.7099,0.9008,0,0,0
-0.3247,0.1072,0.939,-3.1679,-3.1527,1.4046,0,0,0
-0.3264,0.1143,0.9348,-3.9084,-4.0763,1.1832,0,0,0
-0.3247,0.1047,0.9482,-5.7023,-5.5954,1.2061,0,0,0
-0.3279,0.104,0.9685,-7.2366,-6.1221,1.4046,0,0,0
-0.3215,0.0911,0.9663,-7.0305,-5.7786,2.2443,0,0,0
-0.325,0.1028,0.959,-7.0916,-5.9008,3.1374,0,0,0
-0.3137,0.1123,0.948,-9.5954,-6.6412,3.3053,0,0,0
-0.3296,0.0762,0.9224,-13.4962,-8.2214,3.2061,0,0,0
-0.3433,0.0701,0.936,-13.5954,-9.9008,4.6107,0,0,0
-0.3452,0.0688,0.9309,-12.6565,-10.7863,6.1756,0,0,0
-0.3411,0.0645,0.927,-10.8397,-12.3817,8.5573,0,0,0
-0.3384,0.0645,0.938,-11.6183,-14.6336,10.1679,0,0,0
-0.3362,0.0566,0.9583,-13.458,-15.084,12.1679,0,0,0
-0.3181,0.0464,0.9714,-16.9771,-13.145,15.3282,0,0,0
-0.3267,0.03,0.9663,-20.3588,-11.2137,19.5496,0,0,0
-0.3259,0.0259,0.9653,-21.771,-10.0076,24.9924,0,0,0
-0.323,0.0381,0.9663,-21.2519,-10.1756,29.626,0,0,0
-0.3215,0.0588,0.9673,-21.3817,-10.229,31.4504,0,0,0
-0.3105,0.0654,0.9583,-21.5344,-11.7481,31.2443,0,0,0
-0.2949,0.0771,0.9744,-21.0382,-13.084,30.7405,0,0,0
-0.2798,0.074,0.9819,-19.6107,-14.542,29.7252,0,0,0
-0.2637,0.0732,1.0122,-15.2519,-14.9313,29.6107,0,0,0
-0.2639,0.083,1.0254,-13.8397,-14.6336,28.0458,0,0,0
-0.2644,0.0803,1.021,-12.3206,-13.8855,26.313,0,0,0
-0.2612,0.0818,1.0374,-11.6794,-12.4046,25.0382,0,0,0
-0.2651,0.0803,1.0427,-10.458,-10.1832,24.8473,0,0,0
-0.2495,0.0913,1.042,-9.7252,-7.626,23.4962,0,0,0
-0.2407,0.1091,1.0215,-9.4733,-6.626,22.2061,0,0,0
-0.2322,0.1179,1.0068,-7.687,-6.6489,19.9618,0,0,0
-0.2288,0.1321,0.9905,-5.4427,-7.4962,16.3664,0,0,0
-0.2375,0.1384,1.0007,-4.1298,-8.4122,12.1985,0,0,0
-0.2327,0.1335,1.0132,-1.5954,-8.458,9.2443,0,0,0
-0.2346,0.1235,1.0298,0.1527,-7.3511,6.2443,0,0,0
-0.2368,0.1189,1.032,2.2977,-6.1069,5.3435,0,0,0
-0.24,0.1187,1.0325,2.0076,-5.2672,3.5878,0,0,0
-0.2371,0.1191,1.03,1.2519,-3.7863,2.0534,0,0,0
-0.2358,0.1206,1.0271,0.1985,-2.0,0.9084,0,0,0
-0.2312,0.106,1.0215,-2.2748,0.0687,0.7481,0,0,0
-0.2322,0.1111,1.0095,-4.0916,1.7023,0.5725,0,0,0
-0.2368,0.1208,0.9895,-6.2824,2.0534,-1.1756,0,0,0
-0.2466,0.1069,0.9797,-4.916,2.2672,-3.0076,0,0,0
-0.2534,0.0925,0.9814,-0.542,1.4122,-3.8321,0,0,0
-0.2542,0.0752,0.9844,0.2519,-0.1298,-3.6641,0,0,0
-0.2607,0.071,0.9802,0.4351,-0.9924,-3.4122,0,0,0
-0.2566,0.0696,0.9819,0.3206,-1.0076,-3.5038,0,0,0
-0.2673,0.063,0.9907,-2.084,-1.0382,-2.916,0,0,0
-0.2703,0.0583,0.9998,-4.3893,-0.3893,-1.6565,0,0,0
-0.2622,0.0632,1.0181,-5.8321,0.6412,-0.0992,0,0,0
-0.2644,0.0667,0.9976,-6.855,2.4504,0.2672,0,0,0
-0.2654,0.0647,0.9836,-5.0992,1.7176,1.2366,0,0,0
-0.2622,0.0757,0.9829,-3.1374,1.4198,0.8321,0,0,0
-0.2588,0.0776,0.9719,-1.1145,-0.3435,0.3053,0,0,0
-0.2571,0.0715,0.9817,0.6107,-2.1298,-0.0916,0,0,0
-0.2595,0.0801,0.999,1.2748,-3.1145,-0.9924,0,0,0
-0.262,0.0745,1.0073,0.9389,-2.5115,-1.0382,0,0,0
-0.259,0.0767,1.0144,-0.6412,-1.6641,-0.7328,0,0,0
-0.2546,0.0808,1.0173,-2.6565,0.0687,-0.4351,0,0,0
-0.2561,0.0845,0.9988,-1.229,1.5115,0.1603,0,0,0
-0.2581,0.0886,0.9875,-1.7099,1.3893,-0.4656,0,0,0
-0.2593,0.0837,0.9807,-1.7099,0.1832,-0.6641,0,0,0
-0.2527,0.092,0.9741,-0.2214,-0.6031,-0.5573,0,0,0
-0.2551,0.0928,0.9751,-0.7863,-0.1374,-1.2214,0,0,0
-0.26,0.0884,0.9788,-1.8855,-0.687,-1.3053,0,0,0
-0.2585,0.0867,0.9912,-3.5573,-0.4275,-1.542,0,0,0
-0.2573,0.0786,0.9949,-5.7863,-0.229,-1.9313,0,0,0
-0.2629,0.072,1.0117,-5.916,-0.3969,-1.7252,0,0,0
-0.2656,0.0676,1.0115,-5.3282,0.2519,-2.0611,0,0,0
-0.2656,0.0544,1.0005,-2.855,0.4809,-1.2977,0,0,0
-0.2637,0.0557,0.9897,2.3969,0.9771,0.1756,0,0,0
-0.2634,0.0779,0.978,1.626,0.0153,-0.3817,0,0,0
-0.2627,0.0732,0.9797,0.2519,-1.2366,-0.3359,0,0,0
-0.261,0.0823,0.9895,0.0687,-1.4962,-0.4656,0,0,0
-0.2632,0.0825,0.9927,-0.4733,-0.9389,-0.2977,0,0,0
-0.2571,0.0732,0.9856,-1.5954,-0.6641,-0.145,0,0,0
-0.2524,0.0862,0.9912,-2.1832,-0.7176,0.3664,0,0,0
-0.2578,0.0864,0.9834,-3.7557,-0.6183,-1.1679,0,0,0
-0.2605,0.0769,0.9971,-4.6107,-1.0534,-1.1374,0,0,0
-0.252,0.0681,1.0129,-5.0076,-1.1145,-0.4733,0,0,0
-0.2546,0.0701,1.0166,-2.1756,0.2519,0.3359,0,0,0
-0.2581,0.0845,0.9966,-0.4656,1.5344,0.3893,0,0,0
-0.2556,0.0872,0.981,-0.5954,0.6641,-0.1221,0,0,0
-0.2546,0.092,0.9761,-0.4275,0.1069,-0.916,0,0,0
-0.2603,0.0908,0.9775,-1.8473,-1.4198,-1.7786,0,0,0
-0.2695,0.0676,0.991,-2.5725,-1.7786,-2.1374,0,0,0
-0.2715,0.0618,1.0149,-1.9695,-1.2748,-1.3053,0,0,0
-0.2642,0.0596,1.0115,-1.3893,-0.084,0.229,0,0,0
-0.2556,0.0706,0.9988,-2.0458,0.687,0.5878,0,0,0
-0.2522,0.0859,0.9753,-2.3359,0.1679,0.7099,0,0,0
-0.2559,0.092,0.978,-3.0763,-0.2672,-0.3053,0,0,0
-0.2617,0.0835,0.9768,-2.2061,-1.4962,-1.1527,0,0,0
-0.2588,0.0789,0.9868,-1.8244,-2.1221,-1.5115,0,0,0
-0.2607,0.0752,1.0007,0.0153,-1.9466,-1.1603,0,0,0
-0.2571,0.0806,0.9988,-0.4885,-0.8092,-0.9389,0,0,0
-0.2598,0.0833,0.9929,-1.771,0.0687,-0.5649,0,0,0
-0.2637,0.082,1.0051,-2.2595,0.771,-0.1603,0,0,0
-0.2566,0.0857,0.9907,-3.4809,0.6794,-0.1908,0,0,0
-0.2534,0.0774,0.99,-4.0992,0.3053,-0.4733,0,0,0
-0.2537,0.0769,0.9849,-2.9847,-0.4809,-0.7328,0,0,0
-0.261,0.0798,0.9858,-2.0534,-0.0611,-1.1908,0,0,0
-0.2629,0.075,0.9875,-2.084,-1.1069,-1.2672,0,0,0
-0.2649,0.0654,0.9958,-2.374,-1.4809,-1.1298,0,0,0
-0.2717,0.0635,1.0161,-1.1985,-0.8702,-0.4962,0,0,0
-0.2654,0.061,1.0156,0.1298,0.2901,0.4733,0,0,0
-0.2603,0.0801,1.0034,0.5954,0.7863,0.771,0,0,0
-0.2581,0.0825,0.9856,0.0305,1.2977,0.2519,0,0,0
-0.2588,0.0884,0.9639,-0.2137,0.2901,-0.3282,0,0,0
-0.2622,0.0952,0.9573,-0.8626,-1.0305,-0.8321,0,0,0
-0.2578,0.0889,0.9697,-3.3588,-2.2137,-1.1374,0,0,0
-0.2576,0.0732,0.9949,-3.6718,-2.313,-0.2901,0,0,0
-0.2512,0.0808,1.012,-4.1527,-0.7176,-0.2748,0,0,0
-0.2532,0.0779,0.9968,-2.4885,0.0534,-0.0992,0,0,0
-0.2544,0.0847,0.989,-1.7939,-0.4504,-0.6031,0,0,0
-0.2524,0.0847,0.9875,-2.0916,-1.2595,-1.5267,0,0,0
-0.2622,0.0752,0.9976,-2.5725,-2.1603,-1.9313,0,0,0
-0.2593,0.071,0.9944,-2.5649,-1.1069,-1.3893,0,0,0
-0.2625,0.0679,1.0024,-2.3588,-0.0458,-0.7481,0,0,0
-0.2642,0.0669,1.0054,-1.9237,0.8626,0.5649,0,0,0
-0.2627,0.0742,1.0051,0.0763,1.4733,0.7405,0,0,0
-0.2559,0.0776,0.9941,-0.8473,1.2137,-0.1298,0,0,0
-0.2537,0.0796,0.9761,-1.1679,0.3511,-0.6336,0,0,0
-0.2603,0.0828,0.9866,-1.2672,-0.3664,-1.0687,0,0,0
-0.2612,0.0757,0.9836,-1.687,-0.3435,-1.2748,0,0,0
-0.2688,0.0698,0.9868,-0.7176,-0.6489,-0.6565,0,0,0
-0.2639,0.084,0.9805,-0.7863,-0.6107,-0.1756,0,0,0
-0.2644,0.0852,0.9827,-1.2137,-0.4885,-0.1832,0,0,0
-0.2585,0.0862,0.9849,-1.6412,-1.0229,-0.4809,0,0,0
-0.2627,0.0808,0.9907,-1.5878,-1.2672,-0.9695,0,0,0
-0.2637,0.0747,1.0037,-2.4275,-1.1679,-0.7405,0,0,0
-0.2646,0.0728,1.0059,-2.2214,-0.229,-0.458,0,0,0
-0.2639,0.0808,0.991,-3.3969,0.0763,-0.4656,0,0,0
-0.2566,0.0801,0.9797,-4.9924,-0.6107,-0.0382,0,0,0
-0.2571,0.0791,0.9883,-2.3817,-0.2214,-0.3969,0,0,0
-0.2522,0.0823,0.9766,-0.1221,-0.2824,-1.2137,0,0,0
-0.2603,0.0769,0.9763,2.1985,-1.687,-1.1298,0,0,0
-0.2649,0.0818,0.9885,0.6183,-2.3893,-1.4656,0,0,0
-0.262,0.0664,1.0017,0.0763,-1.5496,-1.0992,0,0,0
-0.259,0.071,1.0098,-0.7939,-0.0305,-0.1221,0,0,0
-0.2585,0.0774,0.9944,-2.3206,0.542,0.3206,0,0,0
-0.2502,0.0852,0.9851,-2.0458,0.9008,-0.2443,0,0,0
-0.2585,0.0872,0.9656,-0.9313,-0.2061,-0.7023,0,0,0
-0.2568,0.083,0.9761,-2.5802,-1.8626,-1.5191,0,0,0
-0.2639,0.072,0.9971,-3.0458,-2.3664,-1.5573,0,0,0
-0.2632,0.0696,1.0149,-2.5496,-1.3664,-1.2901,0,0,0
-0.2661,0.0601,1.0024,-2.1298,-0.0458,-0.2748,0,0,0
-0.2681,0.0728,0.978,-3.0534,1.0229,0.9771,0,0,0
-0.2676,0.0854,0.9707,-4.2824,0.8244,1.9695,0,0,0
-0.2607,0.082,0.9612,-6.7634,-0.5344,2.1069,0,0,0
-0.2607,0.0857,0.98,-5.1908,-1.916,1.6183,0,0,0
-0.2661,0.074,0.9875,-4.3588,-2.0534,0.6641,0,0,0
-0.2537,0.0674,1.002,-1.0763,-3.6641,-0.2214,0,0,0
-0.2495,0.0798,1.0327,0.3817,-3.1756,-2.0305,0,0,0
-0.2417,0.0742,1.0159,-0.0992,-2.313,-2.6794,0,0,0
-0.2456,0.0769,0.9944,-1.7328,-1.6183,-2.0992,0,0,0
-0.2568,0.0837,0.9968,-3.0992,-0.8244,-1.2901,0,0,0
-0.2542,0.0776,0.9951,-2.0,-0.2672,-0.8931,0,0,0
-0.2515,0.0947,1.0022,-1.8931,-0.4046,-1.0382,0,0,0
-0.248,0.0918,1.0073,-0.4351,-0.3435,-2.3053,0,0,0
-0.2554,0.0913,1.0034,1.145,-0.1374,-3.7252,0,0,0
-0.259,0.0786,1.0063,0.7099,-0.1374,-4.2977,0,0,0
-0.2656,0.0662,0.998,0.7786,0.6641,-3.3817,0,0,0
-0.2678,0.0681,0.9856,-1.0611,1.458,-2.2519,0,0,0
-0.2654,0.0652,0.9666,-1.8473,1.4733,-1.2824,0,0,0
-0.2656,0.0808,0.96,-3.9771,0.1908,-0.5802,0,0,0
-0.2683,0.0791,0.9683,-5.3588,-1.2061,-0.5649,0,0,0
-0.2646,0.0701,0.9939,-4.5115,-1.4962,-1.084,0,0,0
-0.261,0.0735,1.0103,-2.1221,-1.1527,-0.9771,0,0,0
-0.2522,0.0759,1.0093,-1.1756,-0.374,-1.1298,0,0,0
-0.2576,0.0713,0.9983,-0.2672,0.5267,-1.0305,0,0,0
-0.2634,0.0667,0.9849,-1.0153,0.2672,-0.7557,0,0,0
-0.2622,0.0652,0.9836,-1.5878,-1.0,-0.0916,0,0,0
-0.259,0.0647,0.9897,-2.0611,-1.2214,0.2748,0,0,0
-0.2544,0.0664,0.9988,-1.687,-0.9008,0.5496,0,0,0
-0.2554,0.0764,0.9995,-1.1679,-0.6641,0.542,0,0,0
-0.2571,0.0891,0.9844,-1.4122,-0.5954,-0.0611,0,0,0
-0.2561,0.0872,0.9844,-1.6031,-0.6947,-0.1756,0,0,0
-0.2561,0.0896,0.9827,-2.2214,-1.2061,-0.7176,0,0,0
-0.2656,0.0754,1.0039,-0.3664,-1.1298,-0.6336,0,0,0
-0.2571,0.074,1.002,0.1374,-0.5725,-0.3435,0,0,0
-0.2603,0.0664,1.0071,-1.5649,-0.4046,-0.1985,0,0,0
-0.2578,0.083,1.0073,-1.9466,0.2824,-0.0305,0,0,0
-0.2502,0.0852,0.9988,-3.7328,0.626,-0.5267,0,0,0
-0.249,0.0825,0.9758,-3.0534,0.1985,-0.7786,0,0,0
-0.2568,0.0933,0.9822,-1.3206,-0.2443,-2.3206,0,0,0
-0.26,0.0662,0.9753,-1.229,-1.9542,-2.687,0,0,0
-0.2588,0.0615,0.9995,-0.9618,-1.855,-1.4885,0,0,0
-0.2595,0.0698,1.0154,-2.3282,-0.4275,-0.7328,0,0,0
-0.2532,0.0566,1.0078,-3.1221,0.7328,-0.1069,0,0,0
-0.2546,0.0703,1.0071,-2.626,1.2519,0.6336,0,0,0
-0.2578,0.0798,0.9883,-3.0916,1.2748,0.1069,0,0,0
-0.2568,0.0754,0.9768,-0.6489,0.1832,-0.4504,0,0,0
-0.2598,0.0791,0.9719,-0.3893,-0.8855,-0.8855,0,0,0
-0.2615,0.0759,0.9807,-0.229,-1.2366,-0.8779,0,0,0
-0.2605,0.0706,0.9993,-0.6794,-1.0,-0.1374,0,0,0
-0.2573,0.0728,1.0061,-1.0153,-0.5191,0.145,0,0,0
-0.2622,0.0757,1.0066,-1.5038,0.0687,-0.3206,0,0,0
-0.2603,0.0723,0.9919,-2.3053,0.4198,-0.1527,0,0,0
-0.2581,0.0764,0.9817,-2.2214,0.2137,0.2519,0,0,0
-0.2664,0.0811,0.9734,-2.7176,0.5878,0.084,0,0,0
-0.2644,0.0759,0.9844,-3.0076,-0.2824,0.8168,0,0,0
-0.2625,0.0757,0.9797,-4.3817,-0.8931,0.313,0,0,0
-0.2668,0.0759,1.0,-4.2824,-1.6641,0.1679,0,0,0
-0.2573,0.0713,1.0029,-3.0687,-1.4656,0.0,0,0,0
-0.2478,0.0779,1.0005,-1.5038,-1.6031,-0.5725,0,0,0
-0.2505,0.0891,0.9866,-0.9313,-1.229,-1.6947,0,0,0
-0.2595,0.0835,0.9817,-0.8702,-1.7405,-2.229,0,0,0
-0.2632,0.0706,0.9827,-1.8702,-2.2519,-1.7252,0,0,0
-0.2654,0.0657,1.0042,-0.4733,-1.7863,-0.8244,0,0,0
-0.2595,0.0708,1.0161,-2.1985,-1.1298,-0.8855,0,0,0
-0.2549,0.0659,1.0139,-2.855,-0.0763,0.2824,0,0,0
-0.2512,0.0818,1.0149,-2.7863,1.4885,0.1985,0,0,0
-0.2478,0.083,0.989,-3.4046,1.6718,0.0382,0,0,0
-0.2524,0.0857,0.9722,-2.8626,0.4809,-0.5115,0,0,0
-0.2542,0.0869,0.9724,-2.6107,-0.4504,-1.458,0,0,0
-0.2561,0.075,0.981,-1.1527,-1.7939,-1.9695,0,0,0
-0.2642,0.0698,0.9878,-1.771,-1.9771,-1.2137,0,0,0
-0.2603,0.0642,0.9905,-2.5954,-1.8473,-0.8702,0,0,0
-0.2561,0.0642,1.0002,-2.2901,-2.5649,-0.4122,0,0,0
-0.2517,0.0808,1.0029,-2.9008,-2.0992,-1.4275,0,0,0
-0.2483,0.0608,1.0176,-3.5267,-2.0382,-1.8473,0,0,0
-0.2612,0.053,1.0342,-2.313,0.0763,-1.313,0,0,0
-0.259,0.0481,1.0098,-2.145,1.6794,-0.1603,0,0,0
-0.2603,0.0627,0.9902,-2.2519,1.9313,1.1985,0,0,0
-0.2559,0.0835,0.9788,-2.7405,1.4351,0.6718,0,0,0
-0.2598,0.0808,0.9858,-2.7023,0.5038,-0.0916,0,0,0
-0.261,0.0837,1.0237,-5.855,1.5725,-1.145,0,0,0
-0.2571,0.0476,1.0488,-10.4427,4.7328,0.5954,0,0,0
-0.2598,0.0657,1.0491,-13.5267,8.5115,2.9924,0,0,0
-0.2585,0.051,1.0334,-16.2595,12.084,4.0229,0,0,0
-0.2788,0.061,1.0698,-19.3206,15.6183,5.3893,0,0,0
-0.2695,0.0686,1.0854,-24.1832,18.9008,6.1985,0,0,0
-0.2588,0.054,1.1108,-27.2443,23.8702,5.1221,0,0,0
-0.259,0.0393,1.1077,-26.0076,28.6947,6.5038,0,0,0
-0.2622,0.0542,1.0959,-22.6794,33.9084,6.9389,0,0,0
-0.2742,0.0513,1.0552,-17.7176,35.0229,4.3435,0,0,0
-0.2664,0.0361,0.9673,-7.4504,33.7328,4.7481,0,0,0
-0.28,0.0547,0.9343,1.458,29.8626,5.1985,0,0,0
-0.3052,0.0781,0.9492,2.5649,26.3282,2.4656,0,0,0
-0.3154,0.0649,0.9575,2.0229,24.0382,-0.2137,0,0,0
-0.3101,0.04,0.9297,2.687,23.3282,0.2901,0,0,0
-0.3013,0.0496,0.9163,2.5878,21.5344,1.1756,0,0,0
-0.3086,0.0715,0.9065,0.5802,19.1145,0.6641,0,0,0
-0.3247,0.0728,0.9246,-1.6183,17.0229,-1.771,0,0,0
-0.3276,0.0513,0.9407,-1.5725,14.6947,-2.2977,0,0,0
-0.3486,0.0388,1.0195,-2.9237,15.4962,-1.8321,0,0,0
-0.3457,0.0188,1.0325,-1.8321,18.1832,-0.1374,0,0,0
-0.3391,0.0146,1.0356,1.6565,21.2519,2.6107,0,0,0
-0.3181,0.0476,1.0078,5.374,23.2672,3.9771,0,0,0
-0.3145,0.0676,0.958,7.3053,24.3511,2.9542,0,0,0
-0.3184,0.0901,0.8953,8.1832,22.1527,0.6183,0,0,0
-0.3386,0.0945,0.8752,5.5573,17.3664,-2.5267,0,0,0
-0.3596,0.0854,0.866,2.9847,12.2595,-5.9389,0,0,0
-0.3708,0.0635,0.8718,2.8779,8.0076,-6.626,0,0,0
-0.3687,0.0657,0.8784,2.687,4.855,-6.4962,0,0,0
-0.3677,0.0598,0.8545,1.687,1.771,-6.6031,0,0,0
-0.375,0.0579,0.8442,2.3511,-2.1374,-6.542,0,0,0
-0.3774,0.0542,0.8579,0.5649,-6.458,-6.4733,0,0,0
-0.3801,0.04,0.9087,-2.9771,-9.4504,-5.8397,0,0,0
-0.3823,0.0168,0.9885,-8.5267,-8.0992,-4.3511,0,0,0
-0.3748,-0.0107,1.0288,-11.0458,-3.6489,-0.229,0,0,0
-0.3669,-0.0071,1.0291,-10.7252,0.771,4.145,0,0,0
-0.3613,0.0208,1.019,-8.9313,3.374,5.8473,0,0,0
-0.3599,0.0205,0.9878,-3.9008,3.0687,5.3282,0,0,0
-0.3501,0.0347,0.9751,2.6947,1.084,4.7405,0,0,0
-0.3394,0.0608,0.9609,8.4198,-1.2519,2.7099,0,0,0
-0.3325,0.0889,0.9375,10.458,-3.2137,-0.2748,0,0,0
-0.3352,0.0986,0.9207,8.1527,-5.1374,-3.145,0,0,0
-0.3396,0.1003,0.9106,3.6794,-5.8321,-4.7328,0,0,0
-0.3489,0.0845,0.9033,0.5725,-6.0916,-4.7634,0,0,0
-0.3591,0.0681,0.905,-1.0611,-6.542,-3.687,0,0,0
-0.3752,0.0513,0.9692,-6.0992,-6.4275,-2.374,0,0,0
-0.3748,0.0159,1.032,-7.3282,-3.145,0.8397,0,0,0
-0.3635,0.0122,1.0515,-6.6489,1.7405,4.626,0,0,0
-0.3494,0.0398,1.0325,-6.2595,5.2519,6.9542,0,0,0
-0.3428,0.071,0.9871,-5.5115,6.458,6.1679,0,0,0
-0.3403,0.0825,0.9443,-3.9389,4.4809,3.4427,0,0,0
-0.3481,0.0762,0.9329,-1.8015,0.0916,0.4427,0,0,0
-0.3523,0.074,0.9285,-0.2061,-3.2214,-2.8092,0,0,0
-0.3584,0.0498,0.9365,3.4427,-5.6718,-3.1985,0,0,0
-0.3508,0.0513,0.9438,6.5267,-6.4122,-2.7252,0,0,0
-0.3499,0.0542,0.9573,5.3893,-4.8168,-2.1985,0,0,0
-0.3547,0.0469,0.9529,1.8321,-3.0382,-0.374,0,0,0
-0.3604,0.052,0.958,-1.7176,-1.2672,0.9084,0,0,0
-0.3611,0.0574,0.9473,-5.2443,-1.1145,1.9771,0,0,0
-0.3635,0.0574,0.9465,-6.7634,-2.8473,1.8321,0,0,0
-0.3589,0.0542,0.97,-5.9237,-5.1908,1.0611,0,0,0
-0.3484,0.0444,0.9893,-2.8092,-5.4733,0.4275,0,0,0
-0.3428,0.0405,1.0022,2.8626,-4.2901,0.8321,0,0,0
-0.3333,0.0713,0.9949,4.5496,-2.6412,0.9542,0,0,0
-0.3433,0.0754,0.9849,3.3969,-1.3282,0.1679,0,0,0
-0.3362,0.0769,0.9692,2.6641,-0.2595,0.1679,0,0,0
-0.3391,0.0854,0.9553,1.1069,0.1069,-0.2214,0,0,0
-0.3376,0.0808,0.948,-1.2748,-0.4962,-0.8015,0,0,0
-0.3389,0.0737,0.9395,-2.6031,-1.1374,-0.8779,0,0,0
-0.3403,0.0764,0.9451,-3.4046,-2.1374,-1.1679,0,0,0
-0.3425,0.0737,0.95,-4.5649,-3.1527,-1.7634,0,0,0
-0.3406,0.0627,0.9834,-2.0992,-2.9847,-1.7786,0,0,0
-0.3457,0.0588,0.9902,-0.4962,-2.2595,-1.8244,0,0,0
-0.3401,0.0579,0.9736,1.3206,-1.5725,-2.1527,0,0,0
-0.3403,0.0696,0.9792,2.2137,-1.2443,-2.7176,0,0,0
-0.3464,0.0598,0.9639,0.9847,-0.9084,-3.374,0,0,0
-0.3538,0.0452,0.9668,-0.9695,-0.1374,-2.0687,0,0,0
-0.3574,0.0508,0.9573,-3.229,0.1374,-0.3435,0,0,0
-0.3599,0.053,0.9651,-5.8092,0.2214,0.2214,0,0,0
-0.3533,0.0464,0.9702,-5.9313,0.145,0.7634,0,0,0
-0.3472,0.0544,0.9702,-4.6489,-0.1756,0.3359,0,0,0
-0.3403,0.0559,0.957,-2.9313,-0.8244,-0.2061,0,0,0
-0.3396,0.0593,0.9514,-0.1527,-1.9237,-0.5802,0,0,0
-0.3455,0.0627,0.9626,1.3282,-2.7023,-1.4809,0,0,0
-0.3442,0.0579,0.9536,1.8473,-2.9618,-1.8855,0,0,0
-0.3398,0.0669,0.946,1.4656,-3.3435,-1.2977,0,0,0
-0.3374,0.0857,0.9402,-0.9084,-3.6794,-2.2672,0,0,0
-0.3384,0.0898,0.9343,-4.8702,-4.2977,-3.6718,0,0,0
-0.3557,0.071,0.9827,-8.7939,-4.5573,-3.9695,0,0,0
-0.3545,0.0305,1.0244,-10.0305,-0.9618,-2.0305,0,0,0
-0.3469,0.0066,1.0352,-6.916,3.5725,2.3588,0,0,0
-0.3442,0.0356,1.0134,-3.4962,6.4046,5.3664,0,0,0
-0.3374,0.0718,0.9668,-0.855,6.1985,4.2061,0,0,0
-0.3315,0.0911,0.9319,0.3893,2.8092,1.2061,0,0,0
-0.3269,0.0918,0.9175,1.4962,-1.2519,-2.916,0,0,0
-0.333,0.0786,0.9287,1.3435,-3.9313,-5.7099,0,0,0
-0.3413,0.054,0.9331,-0.0076,-5.0763,-6.0763,0,0,0
-0.355,0.0403,0.948,-1.6412,-4.8015,-4.0458,0,0,0
-0.3572,0.0439,0.9744,-1.2519,-3.8931,-1.5725,0,0,0
-0.3484,0.0437,0.9753,-1.7939,-2.1832,0.2977,0,0,0
-0.3428,0.0542,0.9731,-2.8092,-1.771,0.9389,0,0,0
-0.3433,0.0544,0.9922,-4.9466,-1.2748,0.4885,0,0,0
-0.3484,0.0471,0.9988,-5.9389,-0.2595,0.5344,0,0,0
-0.345,0.0427,0.9875,-4.3588,1.4733,1.1832,0,0,0
-0.3408,0.0574,0.9656,-3.4809,1.0534,1.7557,0,0,0
-0.3452,0.0608,0.96,-1.8092,-0.2519,1.5191,0,0,0
-0.3367,0.0657,0.9565,0.5038,-1.5954,0.0992,0,0,0
-0.3291,0.0686,0.9573,2.687,-2.2901,-0.8092,0,0,0
-0.3318,0.0725,0.9619,1.1145,-2.4656,-1.8779,0,0,0
-0.3347,0.0659,0.9729,-0.8092,-2.0,-2.2137,0,0,0
-0.3401,0.0496,0.9648,-1.5954,-1.2595,-1.4427,0,0,0
-0.3381,0.0562,0.9634,-1.5038,-0.7405,-0.1679,0,0,0
-0.3401,0.064,0.9624,-2.084,-0.2443,0.3893,0,0,0
-0.3374,0.063,0.981,-3.626,-0.6718,-0.3282,0,0,0
-0.3464,0.0466,1.0132,-4.4809,1.2061,-0.313,0,0,0
-0.3394,0.0374,1.0107,-3.5954,3.916,1.6794,0,0,0
-0.3369,0.0571,0.9868,-3.145,5.084,2.5344,0,0,0
-0.3406,0.075,0.9622,-1.8702,4.9084,1.4122,0,0,0
-0.3337,0.0833,0.9316,-0.1985,2.687,-0.6031,0,0,0
-0.3394,0.0867,0.9211,-0.5878,-0.4733,-2.3282,0,0,0
-0.3528,0.0686,0.9324,-1.5802,-2.6412,-3.9313,0,0,0
-0.3599,0.0442,0.948,-1.4122,-2.8473,-3.1908,0,0,0
-0.3625,0.0388,0.9692,-2.7328,-1.9008,-1.2824,0,0,0
-0.3569,0.0349,0.9724,-2.2672,-1.1985,0.2366,0,0,0
-0.3467,0.0542,0.9687,-1.0992,-0.9542,0.771,0,0,0
-0.3413,0.0564,0.9717,-1.458,-1.084,0.5954,0,0,0
-0.3357,0.0632,0.9792,-2.2214,-0.1832,0.2366,0,0,0
-0.3352,0.0637,0.9797,-3.8702,0.0076,-0.1145,0,0,0
-0.3472,0.0652,0.9624,-4.4198,0.374,-0.6031,0,0,0
-0.3474,0.0647,0.9648,-4.4504,-0.6412,-1.0611,0,0,0
-0.3479,0.0554,0.9644,-3.1908,-1.2672,-0.8626,0,0,0
-0.3445,0.0496,0.9705,1.0916,-0.6947,-0.626,0,0,0
-0.3357,0.0549,0.9631,3.0153,-1.4427,-0.2824,0,0,0
-0.3333,0.0698,0.9558,1.8855,-2.0687,-1.3511,0,0,0
-0.3376,0.0767,0.9644,-0.229,-2.2214,-2.3053,0,0,0
-0.3357,0.0667,0.9832,-2.8779,-1.855,-3.2366,0,0,0
-0.3342,0.0454,0.9944,-5.5267,-0.2672,-2.8473,0,0,0
-0.3435,0.0298,0.9946,-3.916,2.3206,-0.8321,0,0,0
-0.3474,0.043,0.9709,-2.8244,3.3664,0.916,0,0,0
-0.3481,0.0645,0.9585,-2.313,2.2595,0.7863,0,0,0
-0.3501,0.074,0.9434,-1.916,0.5115,-0.0992,0,0,0
-0.3403,0.0654,0.9475,-1.4198,-0.855,-1.3588,0,0,0
-0.3354,0.0669,0.9578,-0.5573,-1.2901,-1.9084,0,0,0
-0.3369,0.0649,0.9468,-0.5878,-1.7405,-1.9313,0,0,0
-0.3425,0.0598,0.9575,-1.1527,-2.1145,-1.8855,0,0,0
-0.3501,0.0601,0.9585,-2.2824,-2.5344,-2.626,0,0,0
-0.3496,0.0391,0.9731,-3.1298,-2.8626,-1.771,0,0,0
-0.3433,0.0405,0.978,-2.0153,-2.1756,-0.313,0,0,0
-0.3406,0.0518,0.9873,-1.8473,-1.3053,0.1756,0,0,0
-0.3442,0.0505,0.9761,-1.145,-1.0763,0.2748,0,0,0
-0.3381,0.0649,0.9653,1.0611,-1.0076,-0.0763,0,0,0
-0.3413,0.0676,0.9553,1.2977,-1.4809,-1.0534,0,0,0
-0.3369,0.073,0.9441,0.542,-3.1298,-2.1908,0,0,0
-0.3379,0.0669,0.9451,-1.6718,-4.0916,-2.9542,0,0,0
-0.3467,0.0535,0.9558,-2.4962,-4.2519,-2.4427,0,0,0
-0.3486,0.0518,0.9578,-2.4122,-3.8397,-1.6031,0,0,0
-0.343,0.0515,0.9749,-3.6183,-3.4122,-0.8015,0,0,0
-0.3413,0.0525,0.9644,-3.2519,-3.0992,-0.374,0,0,0
-0.3345,0.0669,0.9641,-1.4122,-3.1832,-0.1908,0,0,0
-0.3281,0.0828,0.9377,-1.2595,-4.0,-1.9542,0,0,0
-0.3289,0.0811,0.9282,-1.7023,-6.9771,-3.4504,0,0,0
-0.3223,0.0928,0.9224,-1.1069,-9.5496,-5.0992,0,0,0
-0.3203,0.0884,0.9282,-0.2214,-11.5191,-7.9237,0,0,0
-0.3301,0.0625,0.9231,1.687,-13.8397,-8.5267,0,0,0
-0.3303,0.0532,0.908,4.9466,-16.8321,-7.4733,0,0,0
-0.3311,0.0657,0.9155,6.7863,-18.5954,-7.9542,0,0,0
-0.3145,0.0818,0.884,8.6947,-20.7405,-7.8931,0,0,0
-0.3196,0.0764,0.8411,13.229,-26.0,-8.229,0,0,0
-0.3235,0.0991,0.8281,10.7634,-34.6565,-11.2519,0,0,0
-0.3154,0.0947,0.8625,6.1221,-40.8397,-14.7481,0,0,0
-0.322,0.0503,0.9016,2.3053,-45.2977,-15.8626,0,0,0
-0.3101,0.0376,0.9746,-2.6947,-46.9771,-14.4427,0,0,0
-0.3228,0.0264,1.0317,-5.3664,-44.1756,-12.8931,0,0,0
-0.3118,-0.0098,1.0566,-2.9313,-39.9618,-8.6412,0,0,0
-0.2876,-0.0061,1.0271,2.9542,-36.1145,-4.0153,0,0,0
-0.28,0.0266,0.9702,7.4656,-33.5344,-1.4275,0,0,0
-0.2842,0.0354,0.9155,5.8015,-33.687,0.2595,0,0,0
-0.2639,0.0332,1.0,9.3664,-39.8015,5.084,0,0,0
-0.252,-0.0745,1.0793,14.2672,-41.4733,7.9542,0,0,0
-0.2375,0.0532,1.2202,22.8321,-38.8473,8.6489,0,0,0
-0.2153,0.0579,1.2405,27.0076,-27.7786,4.7099,0,0,0
-0.1877,0.0542,1.1699,24.0458,-17.6336,3.5344,0,0,0
-0.1865,0.082,1.0754,21.458,-11.1145,6.0611,0,0,0
-0.1948,0.1355,0.9707,14.9542,-10.0534,6.5496,0,0,0
-0.2039,0.1401,0.9539,10.8397,-14.229,4.4427,0,0,0
-0.2119,0.146,1.0081,12.4122,-15.2366,2.8702,0,0,0
-0.1995,0.1357,1.0422,10.916,-12.8168,0.3511,0,0,0
-0.1819,0.1208,1.0354,8.8244,-9.5954,1.0076,0,0,0
-0.175,0.1353,1.0459,6.8855,-5.9466,0.7023,0,0,0
-0.1819,0.1458,1.0225,3.458,-4.3359,0.2672,0,0,0
-0.1909,0.1382,1.031,2.4809,-3.084,-0.9237,0,0,0
-0.1992,0.116,1.01,2.0534,-1.7557,-1.2061,0,0,0
-0.2024,0.1108,1.0063,1.4809,-2.5038,-0.9542,0,0,0
-0.2073,0.1143,1.0122,-0.7023,-3.1603,-0.4198,0,0,0
-0.2085,0.1147,1.0288,-3.3893,-2.2366,-0.1832,0,0,0
-0.2,0.1194,1.0288,-2.6412,0.1603,0.0534,0,0,0
-0.1897,0.1108,1.0093,-3.2824,1.374,-0.8931,0,0,0
-0.2019,0.1094,0.9995,-3.6641,0.5267,-1.4046,0,0,0
-0.2046,0.106,0.9988,-2.542,0.5725,-2.374,0,0,0
-0.2095,0.0962,1.01,-2.4962,0.084,-2.7099,0,0,0
-0.2236,0.0786,1.0049,-2.3206,0.0076,-1.5725,0,0,0
-0.2263,0.0847,1.0088,-0.2672,1.0153,-0.2977,0,0,0
-0.2219,0.095,0.9915,0.0534,0.1527,0.313,0,0,0
-0.2197,0.1038,0.9758,0.7939,-1.6641,0.0153,0,0,0
-0.2051,0.0959,0.9893,0.0687,-3.0153,0.6489,0,0,0
-0.2146,0.1125,1.0156,1.1221,-2.4885,1.4504,0,0,0
-0.2063,0.1233,1.0203,0.7099,-0.3282,0.7252,0,0,0
-0.2,0.1213,0.9971,-0.0763,0.2901,0.8931,0,0,0
-0.1914,0.1262,0.9807,-1.9237,-1.084,0.7634,0,0,0
-0.2075,0.1294,1.0112,-1.1298,-1.7557,-0.9008,0,0,0
-0.2083,0.1265,1.0164,0.3435,-0.0382,-2.3664,0,0,0
-0.2026,0.1106,1.0024,-1.6183,0.458,-1.8321,0,0,0
-0.2075,0.1111,1.0024,-3.9618,-0.0992,-1.3206,0,0,0
-0.2083,0.1082,1.01,-3.916,0.374,-0.9237,0,0,0
-0.1965,0.1074,1.0027,-4.4962,0.1527,-1.1221,0,0,0
-0.2046,0.103,1.0129,-5.8855,-0.3588,-1.8321,0,0,0
-0.2109,0.103,1.0232,-3.5115,1.0534,-1.1145,0,0,0
-0.2119,0.1086,1.0193,-2.229,2.3359,-0.7939,0,0,0
-0.2063,0.1052,0.9927,-2.5573,1.6031,-0.7481,0,0,0
-0.2058,0.1055,0.9854,-2.7328,0.8626,-0.9389,0,0,0
-0.2153,0.1123,0.9856,-1.8855,0.0687,-1.3359,0,0,0
-0.2107,0.1062,0.9856,-1.1145,-0.8397,-1.4962,0,0,0
-0.2112,0.0959,0.999,-2.2824,-1.4427,-1.4885,0,0,0
-0.2092,0.1006,1.0046,-3.0382,-0.7328,-0.9542,0,0,0
-0.2114,0.1028,0.9954,-2.4275,-0.3817,-0.0611,0,0,0
-0.2102,0.1074,1.0017,-2.3664,-1.084,-0.5802,0,0,0
-0.2012,0.1023,1.0059,-2.1985,-1.9466,-0.6031,0,0,0
-0.2017,0.1123,1.0107,-1.1069,-1.0305,-1.4733,0,0,0
-0.207,0.1118,1.0007,-0.6336,-1.3817,-1.6565,0,0,0
-0.2097,0.1035,1.0061,-0.4046,-1.3359,-1.7786,0,0,0
-0.2124,0.105,1.0044,-0.1374,-0.687,-1.374,0,0,0
-0.2148,0.1082,0.9958,0.2595,0.0458,-0.771,0,0,0
-0.2019,0.1096,0.9924,-1.0763,-0.7939,-0.5649,0,0,0
-0.2021,0.1169,0.9939,-1.9389,-1.229,-0.9084,0,0,0
-0.2034,0.1169,1.0107,-2.3053,-1.4275,-1.7023,0,0,0
-0.2012,0.1089,1.0027,-1.8779,-1.313,-2.1679,0,0,0
-0.207,0.1108,1.0017,-2.1145,-0.916,-2.4122,0,0,0
-0.2151,0.1057,1.0081,-2.771,-1.1603,-2.2137,0,0,0
-0.2219,0.0859,1.0286,-2.084,-0.3053,-1.0992,0,0,0
-0.2151,0.0852,1.0288,-1.3282,1.9084,-0.0916,0,0,0
-0.2097,0.0991,0.9973,-1.4046,2.6947,0.542,0,0,0
-0.2129,0.115,0.9729,-3.0687,1.2977,0.7634,0,0,0
-0.2107,0.1177,0.981,-1.8626,0.4198,0.2366,0,0,0
-0.1978,0.1204,0.9822,-1.1298,-0.145,-0.7405,0,0,0
-0.1975,0.1062,0.9937,-1.4962,-1.7557,-1.8321,0,0,0
-0.2039,0.0906,1.0327,-2.0763,-1.626,-1.7176,0,0,0
-0.2124,0.0898,1.0383,-2.4962,0.2901,-0.687,0,0,0
-0.2097,0.1033,1.021,-3.1603,2.4351,0.145,0,0,0
-0.2112,0.1055,1.0132,-5.0534,2.4809,0.6412,0,0,0
-0.2078,0.1094,0.9805,-2.542,2.313,0.3588,0,0,0
-0.2043,0.1101,0.9856,-2.5725,2.0534,-0.2519,0,0,0
-0.2112,0.1038,0.9873,-3.1908,0.1603,-0.1756,0,0,0
-0.2168,0.0874,1.0027,-2.6336,0.1908,0.2901,0,0,0
-0.2292,0.0623,1.01,-3.9313,0.2977,2.0534,0,0,0
-0.2402,0.054,1.0298,-3.8931,0.9618,5.1985,0,0,0
-0.2324,0.0479,1.0325,-2.1527,2.6336,7.9313,0,0,0
-0.228,0.0317,1.032,-2.9847,2.8092,10.3359,0,0,0
-0.2322,0.0337,1.0425,-2.916,4.1221,12.6718,0,0,0
-0.2334,0.0198,1.0498,-3.2824,5.0153,15.458,0,0,0
-0.2297,-0.0151,1.0818,-3.5496,7.4427,19.7405,0,0,0
-0.2314,0.0066,1.0667,-0.2672,10.916,24.1832,0,0,0
-0.2871,0.0508,1.0391,-21.7634,25.229,21.9237,0,0,0
-0.2488,-0.0891,0.8933,-23.6107,23.0611,38.1603,0,0,0
-0.27,0.074,0.9453,-22.4809,19.1679,44.626,0,0,0
-0.2673,0.0854,0.9802,-22.1679,16.2137,41.8092,0,0,0
-0.2417,0.0376,0.9612,-15.6947,11.1603,39.7939,0,0,0
-0.2693,0.0332,0.9888,-8.8092,10.8855,39.8397,0,0,0
-0.2695,0.0156,1.0125,-7.1985,8.9618,43.8702,0,0,0
-0.2666,0.033,1.0547,-12.8168,11.0229,47.4962,0,0,0
-0.2766,0.0242,1.0801,-15.3893,14.458,51.6031,0,0,0
-0.2847,0.0222,1.1074,-14.4122,19.3206,57.3435,0,0,0
-0.2856,-0.0017,1.2329,-8.5344,26.5725,63.374,0,0,0
-0.2454,0.0464,1.0874,-11.458,39.1679,62.4809,0,0,0
-0.239,0.0427,0.9561,-15.916,37.1908,69.2595,0,0,0
-0.2344,0.1169,0.9609,-14.3435,32.3893,68.4657,0,0,0
-0.2168,0.1858,0.9355,-10.7023,28.7557,62.0916,0,0,0
-0.2129,0.2048,0.9253,-9.7176,24.4351,53.9313,0,0,0
-0.2241,0.1838,0.8865,-7.9924,16.8397,46.313,0,0,0
-0.2339,0.188,0.8979,-3.7863,10.9466,39.5573,0,0,0
-0.2397,0.1689,0.928,-0.7176,7.2214,34.916,0,0,0
-0.2266,0.1777,0.9312,3.4427,4.7481,33.1069,0,0,0
-0.22,0.2053,0.9683,3.0916,2.084,31.313,0,0,0
-0.2107,0.2314,0.989,2.3969,1.8855,25.9008,0,0,0
-0.2009,0.2192,0.9695,5.2977,1.458,20.9008,0,0,0
-0.1941,0.2144,0.9695,7.3664,-1.2519,16.4962,0,0,0
-0.2366,0.2219,0.8955,3.5802,-11.7557,16.7939,0,0,0
-0.259,0.3147,1.0,-10.2366,-7.7252,5.6794,0,0,0
-0.2217,0.1516,1.0208,-13.7405,-0.9618,4.0229,0,0,0
-0.2173,0.1321,1.0444,-10.5725,1.4122,7.3893,0,0,0
-0.219,0.1846,1.0459,-9.9313,6.3282,7.6107,0,0,0
-0.2209,0.188,1.0112,-8.687,8.2443,4.626,0,0,0
-0.2197,0.1953,0.9783,-8.0458,6.0763,1.5649,0,0,0
-0.2244,0.2053,0.9849,-7.9924,4.1145,-3.0,0,0,0
-0.2185,0.1868,0.9846,-7.7405,3.9237,-6.7176,0,0,0
-0.2334,0.1785,1.0164,-9.8702,4.3817,-9.8397,0,0,0
-0.2329,0.1472,1.0513,-14.1145,6.6489,-11.9313,0,0,0
-0.2371,0.1309,1.0505,-14.3359,10.4046,-12.6641,0,0,0
-0.238,0.1348,1.0549,-13.6107,13.8397,-13.2061,0,0,0
-0.2412,0.1411,1.0398,-11.5344,16.0305,-15.5573,0,0,0
-0.2507,0.137,1.0452,-5.5038,16.7939,-18.1527,0,0,0
-0.2529,0.1353,1.0769,-2.3664,18.4351,-21.5802,0,0,0
-0.2502,0.1028,1.1013,-0.3588,22.4198,-24.2443,0,0,0
-0.2451,0.1138,1.1052,4.4275,28.3053,-26.2901,0,0,0
-0.2441,0.1279,1.0579,5.7481,32.8779,-29.0153,0,0,0
-0.2488,0.1394,1.001,6.084,33.5191,-31.6336,0,0,0
-0.2664,0.1514,0.9631,9.4656,30.1679,-34.9695,0,0,0
-0.3005,0.1614,0.9595,14.8168,26.2443,-39.374,0,0,0
-0.3159,0.1499,1.0112,19.5496,22.626,-44.5115,0,0,0
-0.3032,0.1101,1.0503,25.2977,22.1832,-47.2672,0,0,0
-0.2979,0.0852,1.0774,32.6183,26.4122,-47.0611,0,0,0
-0.3027,0.0828,1.0491,36.3282,32.3206,-45.3435,0,0,0
-0.301,0.123,1.0085,34.7176,36.2595,-45.7099,0,0,0
-0.3296,0.1472,0.9565,32.2061,37.7328,-47.0534,0,0,0
-0.3518,0.1472,0.9304,29.3893,36.687,-48.1603,0,0,0
-0.3645,0.1462,0.8926,27.3664,34.9847,-47.916,0,0,0
-0.374,0.1392,0.8794,26.1679,31.7481,-47.9924,0,0,0
-0.3696,0.1177,0.8816,26.8168,28.7939,-46.4962,0,0,0
-0.3684,0.134,0.8704,26.7252,27.374,-46.2214,0,0,0
-0.384,0.1506,0.8394,25.2366,23.855,-47.5191,0,0,0
-0.3723,0.186,0.8271,24.0076,20.6641,-51.9008,0,0,0
-0.3601,0.1787,0.7935,22.1069,13.0153,-54.6565,0,0,0
-0.3545,0.1982,0.79,19.5878,6.7405,-59.1374,0,0,0
-0.3682,0.1794,0.8003,15.3511,1.0153,-64.1603,0,0,0
-0.3818,0.1335,0.8276,12.3893,-4.3053,-67.8321,0,0,0
-0.4167,0.0879,0.8518,12.5954,-7.9618,-68.4428,0,0,0
-0.4404,0.0649,0.9124,13.1374,-9.7634,-66.9237,0,0,0
-0.4412,0.0261,0.9346,12.4656,-7.5649,-62.7252,0,0,0
-0.438,0.0044,0.939,10.8092,-4.2214,-56.2977,0,0,0
-0.4487,0.0156,0.9138,10.229,-3.2443,-48.4122,0,0,0
-0.4409,0.0452,0.9158,7.8626,-2.8015,-44.3206,0,0,0
-0.4448,0.0393,0.9158,4.8779,-3.2824,-42.2366,0,0,0
-0.4421,0.0276,0.8918,4.145,-4.2137,-40.5496,0,0,0
-0.4578,0.0295,0.8711,4.9695,-5.9466,-38.8397,0,0,0
-0.4541,0.0381,0.8472,3.8626,-10.0611,-38.1298,0,0,0
-0.459,0.0325,0.8291,3.4198,-14.8168,-37.2443,0,0,0
-0.4521,0.0198,0.8174,5.687,-20.0992,-35.4427,0,0,0
-0.4556,0.0186,0.8337,5.0153,-25.2977,-33.0153,0,0,0
-0.4641,-0.0134,0.8494,7.2824,-28.7481,-29.3893,0,0,0
-0.46,-0.0002,0.9004,4.6794,-29.2061,-25.145,0,0,0
-0.4495,-0.009,0.9285,0.1069,-27.3664,-19.6641,0,0,0
-0.446,-0.0154,0.936,0.4427,-24.2443,-12.1298,0,0,0
-0.4297,0.0342,0.9023,-3.1832,-23.0153,-6.1756,0,0,0
-0.4146,0.0481,0.8669,-6.4427,-24.0153,-2.4198,0,0,0
-0.3958,0.0625,0.9072,-15.6412,-27.7023,-0.7023,0,0,0
-0.4006,0.0559,0.9666,-19.2519,-27.8244,-0.4962,0,0,0
-0.3867,0.0205,1.0024,-17.0763,-26.2137,0.9924,0,0,0
-0.387,-0.0034,1.0376,-11.2672,-23.1985,5.5115,0,0,0
-0.384,0.0271,1.0378,-5.5573,-19.4198,8.3893,0,0,0
-0.3708,0.0579,0.9824,-5.0687,-17.5344,9.1908,0,0,0
-0.3635,0.0686,0.9189,-4.2443,-17.6794,8.9542,0,0,0
-0.3513,0.084,0.8828,-8.5344,-22.1374,8.8092,0,0,0
-0.3418,0.0686,0.8923,-16.4962,-26.8626,7.3435,0,0,0
-0.3462,0.0457,0.9333,-21.3206,-28.4962,6.4351,0,0,0
-0.377,0.0122,0.9407,-19.9084,-28.1221,8.7863,0,0,0
-0.3611,-0.0325,0.9443,-17.1221,-29.5191,13.4427,0,0,0
-0.3745,-0.02,0.9639,-19.3588,-28.9924,19.1221,0,0,0
-0.363,-0.033,0.9707,-18.8779,-28.3893,25.6412,0,0,0
-0.3435,-0.0103,0.9871,-17.8015,-26.8626,31.9847,0,0,0
-0.3293,0.0247,1.0242,-22.8168,-23.9924,35.2824,0,0,0
-0.3167,0.0012,1.0344,-23.8779,-21.8015,37.7634,0,0,0
-0.3196,0.011,1.0488,-22.2366,-20.6031,39.8626,0,0,0
-0.3042,0.0142,1.0413,-20.1374,-19.4809,41.0534,0,0,0
-0.2874,-0.009,1.032,-19.3206,-18.5191,43.0763,0,0,0
-0.2886,-0.0142,1.0796,-13.6031,-15.8321,45.8931,0,0,0
-0.3027,-0.0381,1.0779,-9.0229,-11.1603,47.7557,0,0,0
-0.2942,-0.0625,1.0356,-6.8015,-11.3282,51.8931,0,0,0
-0.291,-0.0369,1.0083,-3.4275,-10.1908,55.4733,0,0,0
-0.2664,-0.0308,1.0095,-0.1145,-9.9313,60.0763,0,0,0
-0.3008,0.0557,0.9778,1.3893,-9.2366,61.6565,0,0,0
-0.2749,0.0757,0.9797,0.6336,-10.8855,61.8321,0,0,0
-0.2622,0.1101,0.9951,-1.6412,-11.6031,60.3435,0,0,0
-0.229,0.1345,1.0432,-4.916,-9.7634,55.2443,0,0,0
-0.2207,0.1116,1.0391,-6.7786,-8.6641,52.0916,0,0,0
-0.2185,0.1284,1.0781,-6.7405,-7.0153,50.0382,0,0,0
-0.2271,0.1382,1.1113,-5.313,-1.2977,46.4046,0,0,0
-0.2239,0.1155,1.1277,-1.3893,3.229,44.6794,0,0,0
-0.218,0.1377,1.1604,5.4733,8.4351,43.3664,0,0,0
-0.2139,0.1514,1.1074,9.9389,12.5954,41.0076,0,0,0
-0.2012,0.1904,1.0793,10.9466,15.5878,37.9237,0,0,0
-0.178,0.2229,1.0356,10.2061,21.0611,31.8779,0,0,0
-0.1702,0.196,0.9592,12.2214,21.0229,26.9084,0,0,0
-0.2319,0.2,0.9504,8.6641,11.2901,10.2901,0,0,0
-0.2361,0.1526,0.9937,12.771,7.6794,9.771,0,0,0
-0.2534,0.1497,1.0293,12.2672,12.8015,9.5191,0,0,0
-0.2542,0.1479,1.0002,7.2519,17.3817,11.145,0,0,0
-0.2534,0.1631,0.9832,2.4885,19.8092,12.9313,0,0,0
-0.2712,0.1865,0.9905,-1.9008,22.0076,11.6107,0,0,0
-0.2749,0.1548,0.9856,-6.2443,24.2595,9.8321,0,0,0
-0.2827,0.1287,0.9812,-8.6336,24.9847,10.7252,0,0,0
-0.3069,0.1257,0.9895,-8.9542,25.8168,12.0458,0,0,0
-0.3137,0.1226,0.9727,-6.7328,26.3817,12.626,0,0,0
-0.3096,0.1248,0.9316,-4.1603,24.8397,11.6947,0,0,0
-0.304,0.1299,0.9094,-2.5878,20.4885,10.9618,0,0,0
-0.3174,0.1467,0.9363,-3.9771,16.8015,8.3664,0,0,0
-0.3289,0.1204,0.9556,-5.3359,15.1832,5.8397,0,0,0
-0.333,0.0942,0.9954,-1.2061,15.4351,6.5954,0,0,0
-0.3218,0.0996,0.9976,2.1069,18.2214,8.1298,0,0,0
-0.3301,0.1042,1.0457,0.6641,21.313,9.8779,0,0,0
-0.3198,0.1113,1.0288,0.3282,26.8244,12.5115,0,0,0
-0.3169,0.1394,0.9744,-0.542,29.8855,13.687,0,0,0
-0.3179,0.1797,0.9177,-2.4275,28.9008,11.2901,0,0,0
-0.335,0.2097,0.8748,-3.916,24.4733,6.7099,0,0,0
-0.3271,0.1885,0.8647,-2.5191,18.9771,2.0076,0,0,0
-0.3135,0.1919,0.8418,0.3893,11.4809,-2.2137,0,0,0
-0.3267,0.2056,0.8491,-0.145,5.1298,-8.3969,0,0,0
-0.3325,0.1753,0.8914,-0.5802,-0.1832,-13.3435,0,0,0
-0.3367,0.1501,0.9363,0.2977,-1.2672,-15.9313,0,0,0
-0.3423,0.135,0.9236,1.5954,-0.5344,-16.6641,0,0,0
-0.3691,0.1221,0.9104,-0.229,-1.2748,-16.7023,0,0,0
-0.3843,0.0955,0.9019,-3.4351,-3.0534,-15.1145,0,0,0
-0.3936,0.082,0.9292,-3.5496,-4.626,-11.374,0,0,0
-0.394,0.072,0.9297,-2.0305,-5.5725,-7.7176,0,0,0
-0.3977,0.0776,0.8977,-1.8779,-7.1603,-5.0305,0,0,0
-0.4038,0.074,0.8901,-5.7099,-9.3435,-2.7023,0,0,0
-0.4028,0.0608,0.8721,-8.7252,-11.9695,0.1908,0,0,0
-0.396,0.0669,0.8552,-9.7176,-16.1832,3.3588,0,0,0
-0.3745,0.0803,0.8877,-12.0229,-21.7023,5.1374,0,0,0
-0.3584,0.0649,0.9146,-12.3511,-24.2824,4.8931,0,0,0
-0.3616,0.0488,0.9319,-9.9924,-25.8168,7.4275,0,0,0
-0.3491,0.054,0.9697,-12.3969,-25.7481,9.9313,0,0,0
-0.343,0.0586,0.9966,-15.0763,-24.771,14.8092,0,0,0
-0.3369,0.0725,1.0039,-12.542,-20.7939,16.5344,0,0,0
-0.3264,0.104,1.0232,-9.8015,-18.2748,17.1756,0,0,0
-0.3179,0.1069,1.0093,-9.4275,-17.084,16.1069,0,0,0
-0.3118,0.1025,1.0154,-9.4809,-17.1145,16.0,0,0,0
-0.3113,0.093,1.0056,-7.4427,-17.2366,17.2137,0,0,0
-0.2896,0.1199,1.0037,-4.6107,-17.1145,17.6489,0,0,0
-0.2754,0.1267,0.9861,-2.1908,-16.2061,17.084,0,0,0
-0.2666,0.1392,0.9167,-3.0229,-21.0076,17.2824,0,0,0
-0.2659,0.1951,0.9414,-6.0992,-25.7328,14.687,0,0,0
-0.272,0.1985,0.9431,-8.3282,-26.1298,8.0916,0,0,0
-0.2695,0.1572,0.9778,-4.9847,-26.1985,3.2672,0,0,0
-0.2881,0.1082,1.0085,0.2214,-24.5573,1.8702,0,0,0
-0.2744,0.084,1.0164,3.0534,-21.313,3.9466,0,0,0
-0.2852,0.0891,1.0244,0.4504,-17.3206,7.8168,0,0,0
-0.2793,0.0974,1.0173,-6.6031,-12.7328,10.6489,0,0,0
-0.2671,0.1016,1.0002,-13.9313,-10.0305,13.2214,0,0,0
-0.2729,0.1082,0.991,-18.7481,-8.8931,13.8092,0,0,0
-0.2783,0.1045,0.9868,-14.8168,-9.8855,14.9389,0,0,0
-0.2854,0.1028,0.9775,-12.3435,-11.7405,14.626,0,0,0
-0.2793,0.1062,0.9971,-12.1908,-12.6412,13.7252,0,0,0
-0.25,0.1047,1.0164,-10.2366,-12.9847,12.5573,0,0,0
-0.2468,0.1069,1.0334,-7.8397,-10.9389,11.1298,0,0,0
-0.2292,0.1021,1.042,-6.1756,-8.4046,9.3969,0,0,0
-0.2288,0.1042,1.0383,-5.0916,-6.1527,9.1985,0,0,0
-0.2427,0.1167,1.0293,-4.3893,-4.5191,8.6565,0,0,0
-0.2454,0.126,1.03,-4.6565,-4.8626,7.5267,0,0,0
-0.2405,0.1211,1.0315,-2.7939,-4.4275,6.5802,0,0,0
-0.2224,0.1296,1.0305,-1.1603,-4.2443,5.1298,0,0,0
-0.2258,0.1226,1.0176,1.7557,-2.5344,3.9008,0,0,0
-0.2349,0.1279,1.0171,2.9618,-0.8702,2.6336,0,0,0
-0.24,0.1128,1.02,0.1985,0.8473,2.458,0,0,0
-0.2415,0.106,1.0322,-2.7863,2.7405,3.4809,0,0,0
-0.2424,0.103,1.019,-3.8092,4.374,4.9771,0,0,0
-0.2468,0.1062,1.0168,-3.0153,5.5115,4.8321,0,0,0
-0.2568,0.0991,1.002,-2.3969,5.3282,4.4504,0,0,0
-0.2622,0.0947,0.9924,-2.7023,4.2214,4.9237,0,0,0
-0.2642,0.0789,0.9724,-4.6412,4.2519,6.7099,0,0,0
-0.2817,0.0955,0.98,-9.8931,5.7099,8.3664,0,0,0
-0.2813,0.0667,0.9998,-17.0076,8.6718,11.229,0,0,0
-0.2773,0.0537,1.0054,-20.1908,11.0916,15.0458,0,0,0
-0.2732,0.0713,1.0027,-21.3664,13.0305,17.9237,0,0,0
-0.2776,0.1011,0.9763,-20.0763,13.5878,17.2672,0,0,0
-0.2534,0.1028,0.9412,-13.458,10.8168,15.8092,0,0,0
-0.2551,0.0994,0.9451,-9.1221,5.1145,12.8702,0,0,0
-0.2524,0.0879,0.9465,-6.4885,0.7328,9.9237,0,0,0
-0.2664,0.0845,0.9766,-2.7481,-1.7405,9.3893,0,0,0
-0.2664,0.0767,0.9656,-2.0,-3.145,9.8015,0,0,0
-0.2813,0.0818,0.9717,-3.7252,-2.9542,11.458,0,0,0
-0.2817,0.0801,0.9866,-7.2595,-1.6718,14.0,0,0,0
-0.2695,0.0955,0.9861,-9.916,-0.6947,16.0382,0,0,0
-0.2622,0.0952,0.9905,-11.8397,0.5802,17.3282,0,0,0
-0.2688,0.1165,0.9905,-12.6412,0.8473,17.3893,0,0,0
-0.2551,0.1001,0.9651,-12.8092,0.2519,16.6489,0,0,0
-0.2576,0.1001,0.9763,-13.2519,-2.0534,15.0153,0,0,0
-0.2468,0.1072,0.9763,-11.0458,-2.9695,13.4046,0,0,0
-0.2449,0.1023,0.9553,-10.1221,-6.7252,12.0076,0,0,0
-0.2375,0.1128,1.0024,-5.3588,-6.6336,10.0458,0,0,0
-0.2349,0.1213,1.011,-1.5802,-5.771,8.4198,0,0,0
-0.2373,0.1033,1.0232,-0.8779,-3.7634,6.8855,0,0,0
-0.2354,0.1074,1.0239,-1.771,-2.3206,6.1603,0,0,0
-0.2415,0.1021,1.0195,-2.3588,-1.1298,5.0,0,0,0
-0.241,0.0994,1.0095,-4.4198,-0.6489,4.2214,0,0,0
-0.2427,0.095,1.0156,-3.3511,-0.458,4.145,0,0,0
-0.2351,0.1123,0.9988,-2.5115,-0.1527,3.2672,0,0,0
-0.2373,0.1084,1.0066,-5.5573,0.1374,2.0916,0,0,0
-0.2598,0.0959,1.0046,-3.5191,1.7176,3.626,0,0,0
-0.2471,0.1187,1.0154,-5.6336,1.5649,1.4427,0,0,0
-0.2439,0.1028,0.9985,-1.2214,2.6489,1.542,0,0,0
-0.2378,0.1064,0.9641,0.0916,0.7328,-0.626,0,0,0
-0.2368,0.126,0.978,2.0,-0.9618,-2.8092,0,0,0
-0.2283,0.1067,0.999,1.6107,-1.3511,-4.9618,0,0,0
-0.2463,0.0928,1.0059,2.6031,-1.8397,-4.9847,0,0,0
-0.2456,0.1021,1.0071,5.3359,-1.5878,-5.0534,0,0,0
-0.2354,0.1194,1.0051,2.1679,-1.2214,-6.771,0,0,0
-0.2478,0.1025,1.0059,0.458,-0.6336,-7.4504,0,0,0
-0.2415,0.1069,0.9988,0.0992,0.6107,-7.7328,0,0,0
-0.2344,0.1194,0.9841,-1.8931,0.771,-9.2901,0,0,0
-0.2322,0.1206,0.97,-2.3817,0.0534,-11.2214,0,0,0
-0.2366,0.1301,0.959,-2.5344,-1.145,-13.5191,0,0,0
-0.2349,0.1213,0.9604,-3.5573,-2.5344,-15.8397,0,0,0
-0.229,0.1023,0.98,-3.771,-4.0534,-17.9618,0,0,0
-0.2268,0.1321,0.9998,-1.2214,-4.313,-21.0076,0,0,0
-0.2107,0.1467,1.011,2.2977,-3.9618,-25.8244,0,0,0
-0.2007,0.1409,1.0149,8.3282,-5.2748,-30.3511,0,0,0
-0.1946,0.1521,1.0176,13.5878,-6.855,-35.2595,0,0,0
-0.2104,0.1873,1.0198,16.0763,-9.6794,-42.6947,0,0,0
-0.198,0.1858,1.0234,17.8092,-11.8092,-53.3588,0,0,0
-0.1936,0.1238,1.0447,25.3893,-14.0,-57.9466,0,0,0
-0.2085,0.1245,1.0391,35.6031,-13.3435,-60.916,0,0,0
-0.2273,0.1133,1.0762,39.8015,-11.4198,-60.8931,0,0,0
-0.2339,0.0977,1.0742,36.1374,-4.5191,-60.1527,0,0,0
-0.2358,0.0652,1.0967,29.771,2.0229,-55.6412,0,0,0
-0.2451,0.0505,1.0837,22.2977,10.0916,-48.7252,0,0,0
-0.2615,0.0491,1.0498,17.3206,17.1221,-41.0534,0,0,0
-0.2725,0.0671,1.0149,12.8397,22.4351,-35.4122,0,0,0
-0.2974,0.084,0.9497,8.229,22.5191,-31.6565,0,0,0
-0.3074,0.0859,0.9248,4.6794,20.1374,-28.9771,0,0,0
-0.314,0.0957,0.9219,3.0687,16.7023,-27.3206,0,0,0
-0.3115,0.0818,0.9187,1.8092,14.0916,-26.8931,0,0,0
-0.3098,0.0664,0.905,2.2901,10.9542,-25.5267,0,0,0
-0.3127,0.0525,0.9141,3.5954,8.0916,-23.7634,0,0,0
-0.3152,0.0435,0.8992,4.5725,4.0458,-21.8092,0,0,0
-0.325,0.0454,0.9048,4.7557,-0.229,-19.2214,0,0,0
-0.3235,0.0518,0.9226,3.3588,-3.145,-17.9008,0,0,0
-0.3223,0.052,0.9319,-0.7405,-4.8626,-15.7252,0,0,0
-0.322,0.0447,0.9436,-3.313,-4.6947,-12.5344,0,0,0
-0.324,0.0366,0.9751,-7.458,-3.4962,-8.9466,0,0,0
-0.323,0.0327,0.9736,-8.2901,-3.0,-4.6641,0,0,0
-0.3167,0.0315,0.9795,-7.6947,-2.916,-1.2901,0,0,0
-0.3086,0.0398,0.9758,-5.4504,-3.5802,1.4122,0,0,0
-0.3081,0.053,0.9858,-4.8473,-4.5725,3.4351,0,0,0
-0.2976,0.0669,0.9971,-2.6412,-4.687,4.7863,0,0,0
-0.2786,0.0867,0.9956,-1.4351,-3.8473,5.6641,0,0,0
-0.269,0.103,0.9766,-3.6031,-3.7099,5.2901,0,0,0
-0.2668,0.1145,0.9839,-6.0687,-3.6718,4.229,0,0,0
-0.262,0.106,0.9868,-9.0,-3.9466,3.3969,0,0,0
-0.2649,0.1028,0.9956,-10.2595,-3.9389,3.7481,0,0,0
-0.2639,0.1111,1.0027,-9.2214,-2.626,3.916,0,0,0
-0.2678,0.1194,0.9868,-4.2595,-1.2748,3.4962,0,0,0
-0.2617,0.1287,0.9727,-1.1069,-2.5038,2.2214,0,0,0
-0.2593,0.1389,0.9729,-2.6031,-4.1832,-0.0458,0,0,0
-0.2571,0.1313,0.9773,-2.4504,-4.8092,-1.9008,0,0,0
-0.2654,0.1177,0.9937,-2.084,-4.5954,-2.458,0,0,0
-0.2683,0.1123,1.009,-0.4809,-3.0534,-2.313,0,0,0
-0.2673,0.1138,0.9963,-2.6412,-1.6336,-2.5038,0,0,0
-0.2666,0.1135,0.9749,-4.4656,-1.4504,-3.1832,0,0,0
-0.2737,0.1138,0.9761,-4.6641,-1.6718,-3.7481,0,0,0
-0.2727,0.0994,0.9939,-7.4962,-2.6489,-4.0229,0,0,0
-0.2688,0.0894,0.9924,-7.5496,-2.1298,-3.6336,0,0,0
-0.2666,0.0972,0.9858,-6.6412,-1.9466,-3.7557,0,0,0
-0.2729,0.0928,0.9839,-7.626,-2.0153,-3.4809,0,0,0
-0.2761,0.0898,0.9941,-6.3435,-1.8779,-2.9237,0,0,0
-0.2693,0.0901,0.9973,-6.2672,-1.4656,-2.8321,0,0,0
-0.2712,0.0808,0.9985,-6.1221,-1.0305,-2.7023,0,0,0
-0.2771,0.0671,1.0056,-3.4198,-0.8779,-2.4656,0,0,0
-0.2776,0.0618,1.0012,-1.3511,-1.229,-2.0076,0,0,0
-0.2754,0.073,0.9946,0.2672,-1.9542,-1.9847,0,0,0
-0.2725,0.0771,0.9956,0.0076,-2.4656,-1.855,0,0,0
-0.2698,0.0854,0.9856,0.1756,-2.0916,-0.9695,0,0,0
-0.2632,0.0847,0.9915,0.8779,-1.3282,-0.4809,0,0,0
-0.2661,0.0872,0.9807,-1.6489,-0.7023,-0.7023,0,0,0
-0.2771,0.0837,0.9756,-1.8321,-1.3359,-0.6641,0,0,0
-0.2686,0.0857,0.9736,-0.8779,-1.8855,-0.6641,0,0,0
-0.2612,0.0833,0.979,-4.0916,-2.8397,-0.7405,0,0,0
-0.2739,0.085,0.9973,-3.3893,-2.5725,-0.0305,0,0,0
-0.2651,0.0901,1.0051,-0.3664,-1.4427,0.6107,0,0,0
-0.2598,0.0977,0.9937,-1.0458,-1.1603,-0.2824,0,0,0
-0.2595,0.1067,0.9934,-1.6565,-1.9313,-1.0,0,0,0
-0.2554,0.1113,0.998,-0.7863,-1.7252,-1.855,0,0,0
-0.2605,0.0935,0.9976,0.0534,-1.0611,-2.4809,0,0,0
-0.2646,0.0928,0.9956,-0.8015,-0.9008,-2.6794,0,0,0
-0.2705,0.094,0.9844,-0.9008,-0.8779,-2.0382,0,0,0
-0.2642,0.0979,0.9841,-2.4046,-1.1603,-1.8626,0,0,0
-0.2622,0.1011,0.9705,-4.1145,-1.1603,-2.374,0,0,0
-0.2561,0.1086,0.9624,-4.5115,-1.6489,-3.0916,0,0,0
-0.262,0.1099,0.9673,-7.2748,-2.5344,-3.7863,0,0,0
-0.2605,0.1038,0.9797,-10.0229,-3.1145,-4.3435,0,0,0
-0.2578,0.0996,0.9814,-10.5954,-2.0687,-4.6183,0,0,0
-0.2651,0.0901,0.9839,-10.3053,-1.6947,-5.0534,0,0,0
-0.2676,0.0789,0.9814,-9.0687,-1.6183,-4.8626,0,0,0
-0.2668,0.063,0.9858,-6.5191,-2.2519,-3.5649,0,0,0
-0.2676,0.0706,1.01,-4.5267,-2.2137,-3.084,0,0,0
-0.2659,0.0728,1.0149,-3.5649,-1.7099,-3.7405,0,0,0
-0.2729,0.063,1.0166,-2.5344,-1.1527,-3.5954,0,0,0
-0.2683,0.0786,1.0056,-2.374,-0.4046,-3.1069,0,0,0
-0.2705,0.0828,0.9915,-4.7328,0.4656,-3.0611,0,0,0
-0.2695,0.0776,0.9802,-4.2824,1.0611,-2.8092,0,0,0
-0.2661,0.0835,0.9622,-4.626,0.2595,-2.6641,0,0,0
-0.2656,0.0833,0.9658,-6.9618,-1.2748,-3.2824,0,0,0
-0.2661,0.0657,0.9885,-7.6794,-2.8626,-3.0763,0,0,0
-0.2625,0.0618,1.0056,-6.0763,-2.3588,-2.8626,0,0,0
-0.2664,0.0659,1.0042,-3.5649,-1.4885,-2.8244,0,0,0
-0.2673,0.0786,0.9929,-3.7023,-1.2977,-3.3206,0,0,0
-0.27,0.0776,0.989,-5.1527,-2.0687,-3.9771,0,0,0
-0.271,0.0762,0.9827,-4.626,-1.4198,-4.4198,0,0,0
-0.2642,0.0693,0.9834,-4.4122,-1.4351,-4.2214,0,0,0
-0.2603,0.0715,0.991,-4.8702,-2.6031,-4.4656,0,0,0
-0.2615,0.0598,0.9944,-3.2443,-3.3588,-3.7099,0,0,0
-0.2622,0.0696,1.0081,-1.4046,-2.8244,-4.0076,0,0,0
-0.2566,0.0632,1.0007,-0.7634,-2.3206,-3.687,0,0,0
-0.2529,0.0767,0.9939,-1.8092,-1.5802,-3.7481,0,0,0
-0.2617,0.0762,0.9934,-2.4275,-0.7939,-3.7405,0,0,0
-0.2576,0.0776,0.9773,-2.6641,-0.7557,-3.5038,0,0,0
-0.2585,0.0774,0.9717,-3.9695,-1.8321,-3.916,0,0,0
-0.2593,0.0708,0.9795,-4.2977,-2.9847,-4.6641,0,0,0
-0.259,0.063,0.9902,-5.6718,-4.1145,-5.1221,0,0,0
-0.2622,0.0522,1.0156,-5.8855,-3.7252,-4.6183,0,0,0
-0.2593,0.0503,1.0198,-3.7557,-2.1603,-3.6794,0,0,0
-0.2644,0.0579,1.0105,-2.1069,-0.7786,-2.8626,0,0,0
-0.2568,0.0625,0.9937,-1.7481,-0.4656,-2.4809,0,0,0
-0.2629,0.0686,0.9854,-2.3511,-0.7405,-2.3435,0,0,0
-0.2581,0.0723,0.9802,-1.8015,-1.1679,-2.9237,0,0,0
-0.2563,0.0757,0.9741,-2.626,-2.1985,-3.4504,0,0,0
-0.259,0.0649,0.9802,-3.9618,-2.9695,-4.1679,0,0,0
-0.2588,0.0632,0.9832,-3.9008,-3.5038,-4.4962,0,0,0
-0.2595,0.0618,0.9885,-4.1603,-3.7634,-4.1832,0,0,0
-0.2595,0.0662,0.9863,-4.0305,-3.3817,-4.0305,0,0,0
-0.2573,0.0586,0.9919,-3.4427,-3.2137,-3.6031,0,0,0
-0.2546,0.0703,0.9812,-3.9695,-2.7099,-3.2519,0,0,0
-0.2559,0.0664,0.9724,-3.8473,-3.2595,-3.1756,0,0,0
-0.2566,0.0706,0.989,-6.0076,-4.0153,-3.8397,0,0,0
-0.2559,0.0586,1.0146,-7.1527,-4.5954,-4.1603,0,0,0
-0.259,0.0493,1.0356,-5.8015,-3.0076,-3.8168,0,0,0
-0.2585,0.0405,1.0259,-3.5496,-1.6794,-3.3053,0,0,0
-0.2522,0.0549,1.0134,-3.0534,-0.9618,-3.1985,0,0,0
-0.2559,0.0623,1.0017,-3.2748,-0.8244,-3.2519,0,0,0
-0.2505,0.0591,0.9841,-2.1221,-0.916,-3.7176,0,0,0
-0.2478,0.0603,0.9795,-1.9847,-1.3969,-3.9008,0,0,0
-0.2473,0.0605,0.9768,-3.8168,-2.5878,-4.542,0,0,0
-0.2537,0.0552,0.9851,-5.1145,-3.0229,-4.8168,0,0,0
-0.2598,0.054,0.9797,-4.6412,-3.3206,-4.6336,0,0,0
-0.2534,0.0488,0.9866,-5.1756,-3.8626,-4.4198,0,0,0
-0.2605,0.0461,0.9973,-7.0992,-4.0076,-4.084,0,0,0
-0.2563,0.0408,1.0007,-6.4275,-3.5649,-3.4275,0,0,0
-0.2593,0.0393,1.0066,-5.5115,-3.2519,-2.4351,0,0,0
-0.2554,0.0283,1.0208,-2.3511,-2.5725,-1.1832,0,0,0
-0.2476,0.0444,1.0322,-1.2366,-1.7863,-1.3053,0,0,0
-0.2422,0.054,1.0222,-2.2519,-0.9466,-1.7939,0,0,0
-0.2427,0.0503,1.0156,-2.9008,-0.4885,-1.4962,0,0,0
-0.2451,0.0571,1.0129,-2.4656,0.4962,-1.7863,0,0,0
-0.2429,0.053,1.0073,-3.5573,1.1374,-2.2824,0,0,0
-0.2439,0.0496,1.0042,-3.8321,1.2595,-1.687,0,0,0
-0.2488,0.051,1.0034,-3.2519,1.2366,-2.1756,0,0,0
-0.2432,0.0459,0.9937,-2.3435,1.084,-1.8779,0,0,0
-0.2439,0.0479,1.0007,-3.3511,0.7099,-2.4122,0,0,0
-0.2517,0.0464,0.9966,-2.4198,1.3893,-2.1069,0,0,0
-0.2507,0.0466,0.9895,-1.4656,1.6718,-2.0076,0,0,0
-0.2529,0.0437,0.9807,-2.9847,0.6718,-1.6718,0,0,0
-0.2573,0.0454,0.9817,-3.2137,0.1374,-1.8168,0,0,0
-0.2568,0.0369,0.9846,-1.7481,-0.7939,-1.7557,0,0,0
-0.2576,0.0405,0.9956,-1.5344,-1.2748,-1.4504,0,0,0
-0.2524,0.0381,1.0139,-3.6565,-1.1221,-1.1374,0,0,0
-0.2568,0.0356,1.0232,-1.9542,0.7481,-0.9771,0,0,0
-0.2563,0.0366,1.0107,0.2901,1.1756,-0.5954,0,0,0
-0.25,0.0515,0.99,0.1145,0.8855,-0.5954,0,0,0
-0.2605,0.0564,0.9814,-1.4198,0.0687,-1.1985,0,0,0
-0.2617,0.0461,0.988,0.0,-0.5802,-1.3359,0,0,0
-0.2571,0.0386,0.9919,1.1145,-1.084,-0.9542,0,0,0
-0.2498,0.0435,0.9812,0.374,-1.084,-0.5573,0,0,0
-0.2512,0.0579,0.9744,-1.5725,-1.3511,-0.6947,0,0,0
-0.2542,0.0649,0.9758,-3.7405,-1.7939,-0.9695,0,0,0
-0.2605,0.0496,1.0032,-2.4427,-1.4122,-1.1756,0,0,0
-0.2451,0.0403,1.0044,-1.1908,-1.2137,-0.5038,0,0,0
-0.2451,0.0439,1.0024,-2.1908,-1.7481,-0.5954,0,0,0
-0.2498,0.0474,1.0168,-2.3511,-1.4656,-0.6336,0,0,0
-0.2488,0.0537,1.0146,-2.1221,-0.6412,-1.3588,0,0,0
-0.2473,0.0486,1.002,-1.4962,-0.7099,-1.8168,0,0,0
-0.2463,0.0535,0.9871,-1.0382,-1.1603,-2.0687,0,0,0
-0.2539,0.0598,0.9827,-2.3435,-1.0916,-2.542,0,0,0
-0.2554,0.0493,0.9917,-2.9924,-0.5038,-2.1832,0,0,0
-0.2505,0.0454,0.989,-4.626,-0.3969,-1.4275,0,0,0
-0.2549,0.0457,0.9885,-5.7328,-0.0992,-1.2443,0,0,0
-0.2512,0.0422,1.002,-3.2748,0.5344,-0.5573,0,0,0
-0.2488,0.0396,0.9966,-1.771,-0.1756,-0.7634,0,0,0
-0.2478,0.0398,1.0054,-0.855,-0.9084,-0.7786,0,0,0
-0.2478,0.0439,1.002,0.0229,-0.9313,-1.8626,0,0,0
-0.2498,0.0422,0.9973,1.0534,-0.7557,-1.9313,0,0,0
-0.2498,0.0435,1.0017,-0.0229,-0.8168,-1.4885,0,0,0
-0.249,0.0491,0.9968,-2.145,0.1069,-1.2366,0,0,0
-0.2444,0.0513,0.9888,-4.3511,0.6794,-1.0076,0,0,0
-0.2515,0.0435,0.9924,-4.3817,1.0458,-0.7328,0,0,0
-0.2593,0.0374,0.9946,-3.4427,0.542,-0.4504,0,0,0
-0.2483,0.0393,1.0005,-2.6641,0.0687,-1.0992,0,0,0
-0.2473,0.04,1.0,-1.7252,-0.6565,-1.2595,0,0,0
-0.2581,0.0378,1.0039,-1.3282,-0.7557,-1.7176,0,0,0
-0.2603,0.0371,1.022,-1.5496,-0.3588,-1.0153,0,0,0
-0.2583,0.0337,1.0354,-4.0534,1.5954,-0.313,0,0,0
-0.2532,0.0435,1.0645,-9.1298,5.313,0.3282,0,0,0
-0.2578,0.0439,1.0781,-14.7252,10.3511,1.4962,0,0,0
-0.2612,0.0249,1.1091,-23.4504,17.2519,1.4733,0,0,0
-0.2527,-0.0081,1.0959,-27.9771,23.7557,5.2443,0,0,0
-0.2622,-0.0042,1.0566,-26.7557,26.5191,8.6183,0,0,0
-0.2644,0.0229,1.1028,-20.4656,28.7328,9.1069,0,0,0
-0.2781,0.0283,1.1104,-22.8702,33.1908,6.626,0,0,0
-0.2729,-0.0093,1.1045,-23.855,37.2748,7.229,0,0,0
-0.28,-0.0352,1.0767,-18.8702,42.0763,11.4427,0,0,0
-0.2842,0.043,1.052,-17.542,47.1908,10.9542,0,0,0
-0.2847,-0.0317,0.9756,-9.7023,48.3282,13.6794,0,0,0
-0.2939,-0.0256,0.9644,-1.3511,46.4046,19.916,0,0,0
-0.2947,0.0364,0.9495,3.916,44.4962,20.4351,0,0,0
-0.2961,0.0767,0.9041,5.8015,42.1145,15.8168,0,0,0
-0.3091,0.0779,0.8564,4.6565,36.0,10.4198,0,0,0
-0.3372,0.0701,0.856,2.6718,27.8702,5.7328,0,0,0
-0.3564,0.0322,0.8511,3.3664,21.2366,2.1603,0,0,0
-0.3701,0.0239,0.8293,6.8244,15.2137,-0.2595,0,0,0
-0.3726,0.0042,0.8098,12.0076,8.6718,0.6412,0,0,0
-0.375,0.0342,0.8289,11.8779,2.4809,1.5496,0,0,0
-0.3704,0.0408,0.8484,6.8931,-1.5191,0.9008,0,0,0
-0.3728,0.0332,0.8955,0.771,-4.2824,0.4656,0,0,0
-0.3735,0.0203,0.9368,-3.4809,-3.9389,1.0687,0,0,0
-0.3689,0.0129,0.9705,-5.0382,-1.8779,2.4504,0,0,0
-0.3613,0.0137,0.9836,-5.916,0.0382,4.2443,0,0,0
-0.3596,0.0168,0.9858,-5.9084,1.0229,4.8397,0,0,0
-0.3518,0.0369,0.9958,-0.6565,0.6031,5.4885,0,0,0
-0.3354,0.054,0.9712,2.5725,0.3053,3.5649,0,0,0
-0.3276,0.0708,0.9697,3.3511,-1.5267,1.0458,0,0,0
-0.3264,0.0786,0.9592,3.0305,-2.8779,-1.9924,0,0,0
-0.3281,0.071,0.9478,4.6718,-3.4962,-3.5191,0,0,0
-0.3328,0.0603,0.9138,6.2214,-3.9237,-4.4427,0,0,0
-0.3379,0.0698,0.8928,5.7481,-6.5115,-5.2748,0,0,0
-0.342,0.0742,0.8696,2.7863,-10.4275,-7.1908,0,0,0
-0.3472,0.0732,0.8633,1.1832,-15.4122,-8.9618,0,0,0
-0.3433,0.064,0.8799,1.4351,-19.542,-10.5878,0,0,0
-0.3384,0.0576,0.8796,2.0076,-23.3817,-12.5878,0,0,0
-0.3296,0.0615,0.8923,2.145,-27.4733,-13.7328,0,0,0
-0.3274,0.0608,0.9043,0.771,-31.2901,-16.145,0,0,0
-0.3174,0.0588,0.9067,-0.1679,-34.1145,-17.7405,0,0,0
-0.3132,0.0415,0.8896,-0.0382,-36.7939,-18.4809,0,0,0
-0.3074,0.0515,0.8882,-2.7557,-39.9008,-18.6641,0,0,0
-0.3232,0.0298,0.9387,-7.1145,-42.2366,-17.6336,0,0,0
-0.3335,0.0198,0.9788,-9.0458,-40.2443,-17.0992,0,0,0
-0.3149,-0.0193,0.9783,-4.7328,-36.5802,-12.9695,0,0,0
-0.2847,-0.0273,0.946,-1.3359,-35.916,-7.4733,0,0,0
-0.2876,0.0042,1.0195,-8.3588,-35.5267,-4.7405,0,0,0
-0.2869,0.0029,1.0762,-14.3893,-32.8931,-4.5115,0,0,0
-0.2832,-0.0193,1.1243,-15.0611,-28.7328,-3.855,0,0,0
-0.2676,-0.0359,1.144,-11.9466,-23.7863,-2.2748,0,0,0
-0.2546,-0.0234,1.1577,-9.1374,-18.4198,-1.5954,0,0,0
-0.2463,-0.021,1.1482,-4.7405,-12.9924,-0.1679,0,0,0
-0.2363,-0.0105,1.1543,-1.8931,-7.6641,0.9313,0,0,0
-0.2375,0.0046,1.137,-0.7176,-2.1985,0.8015,0,0,0
-0.2336,-0.001,1.0945,5.2901,2.9084,1.5649,0,0,0
-0.229,0.0212,1.0322,9.9618,4.8397,2.5649,0,0,0
-0.2312,0.0664,0.9819,9.8321,4.9389,1.6947,0,0,0
-0.2305,0.0723,0.948,6.5573,3.7405,-1.1985,0,0,0
-0.248,0.0762,0.9214,1.7405,1.7786,-3.0763,0,0,0
-0.2576,0.053,0.9175,-4.6107,-1.2672,-4.4962,0,0,0
-0.27,0.022,0.9507,-9.0916,-3.1908,-4.1298,0,0,0
-0.2742,0.0044,0.9829,-9.8779,-3.1298,-2.2137,0,0,0
-0.2732,-0.0002,1.0076,-7.626,-1.9847,-0.4504,0,0,0
-0.2605,-0.0032,1.0139,-5.7176,-1.3893,0.5802,0,0,0
-0.2561,0.0083,1.0137,-3.9542,-1.1985,0.8779,0,0,0
-0.2502,0.0198,1.0151,-1.0916,-1.0687,0.1985,0,0,0
-0.2485,0.0264,1.0129,0.1603,-1.1985,-1.0916,0,0,0
-0.2485,0.0073,1.0139,-0.2824,-1.855,-1.3817,0,0,0
-0.2493,0.0051,1.0181,0.4656,-1.4809,-0.8015,0,0,0
-0.2498,0.0173,1.0303,0.6641,0.1527,-1.0076,0,0,0
-0.2532,0.0139,1.0068,-0.9237,1.1985,-0.8015,0,0,0
-0.2524,0.0205,0.9866,-1.3053,1.3817,-0.0611,0,0,0
-0.2507,0.0383,0.9844,-1.2824,1.7786,-0.2519,0,0,0
-0.2534,0.0339,0.9702,-1.4351,0.8702,-0.229,0,0,0
-0.2573,0.0264,0.9949,-2.7786,-0.0076,-0.542,0,0,0
-0.2646,0.0073,1.0464,-4.2672,0.6031,-0.4046,0,0,0
-0.2622,-0.0088,1.0769,-3.1603,3.9924,0.687,0,0,0
-0.261,-0.0088,1.0586,-3.458,8.2519,2.6794,0,0,0
-0.2678,0.0051,1.0366,-3.2366,11.1908,3.9313,0,0,0
-0.2651,0.0269,0.9727,-1.4198,11.5573,4.2214,0,0,0
-0.262,0.0535,0.9089,0.771,8.4809,3.1832,0,0,0
-0.2515,0.072,0.8899,0.3053,3.229,0.5878,0,0,0
-0.2625,0.0593,0.9023,-2.4809,-2.145,-2.542,0,0,0
-0.2681,0.0244,0.9827,-5.4122,-3.6565,-3.8092,0,0,0
-0.2681,-0.0049,1.0281,-2.626,-1.6107,-2.1908,0,0,0
-0.2693,-0.0071,1.0164,-0.3359,0.5649,0.1374,0,0,0
-0.2673,0.0127,0.9951,0.7481,1.6107,0.9695,0,0,0
-0.2634,0.0308,0.9851,0.2672,0.626,0.6183,0,0,0
-0.2629,0.0339,0.9587,-0.9389,-1.3969,-0.542,0,0,0
-0.2678,0.0266,0.9673,-1.6718,-3.1756,-1.7634,0,0,0
-0.2681,0.0168,0.9888,1.2443,-3.5725,-1.8626,0,0,0
-0.2661,0.0071,0.9937,1.5878,-3.8702,-1.1679,0,0,0
-0.2615,0.0139,1.0105,1.5954,-3.3664,-0.1908,0,0,0
-0.2563,0.0237,1.0132,1.0763,-1.5573,0.1374,0,0,0
-0.2505,0.0288,0.9919,-0.9847,-0.3511,0.0992,0,0,0
-0.2559,0.0383,0.9912,-2.9618,-1.0763,-0.0687,0,0,0
-0.2625,0.033,0.9875,-5.1603,-1.4046,-0.9847,0,0,0
-0.2649,0.0261,0.9976,-5.9618,-1.5038,-1.5344,0,0,0
-0.2622,0.0205,1.0061,-4.4275,-1.3664,-1.0916,0,0,0
-0.2678,0.0215,1.01,-1.8473,-0.855,-0.626,0,0,0
-0.2588,0.0239,0.9927,-0.0305,-1.2137,-0.7405,0,0,0
-0.2563,0.0273,0.9817,0.8168,-1.9237,-1.0916,0,0,0
-0.2595,0.0288,0.9734,1.4427,-2.5573,-1.8931,0,0,0
-0.2598,0.0232,0.967,-0.5344,-3.2443,-2.542,0,0,0
-0.27,0.0095,0.9714,-2.4809,-4.3969,-2.1679,0,0,0
-0.2761,-0.002,0.9827,-4.0534,-5.458,-0.8473,0,0,0
-0.2803,-0.0247,0.9907,-5.4656,-5.6641,0.8321,0,0,0
-0.292,-0.0679,0.9775,-5.3206,-6.0305,3.7023,0,0,0
-0.3,-0.1086,0.9705,-8.6794,-6.7252,10.1298,0,0,0
-0.3245,-0.1262,0.9993,-12.4656,-4.4351,16.4962,0,0,0
-0.3335,-0.1277,1.0,-12.8702,-3.3664,25.5038,0,0,0
-0.3188,-0.1404,0.9958,-14.1985,-3.5115,33.5496,0,0,0
-0.2952,-0.1064,0.99,-12.9542,-3.1145,38.7786,0,0,0
-0.2935,-0.064,0.9697,-7.458,-3.7863,41.0534,0,0,0
-0.2793,-0.041,0.9536,-0.7099,-7.3435,42.3817,0,0,0
-0.2793,-0.0142,0.9812,-1.687,-11.6412,42.1832,0,0,0
-0.282,-0.051,1.0188,-5.0534,-11.8855,42.5496,0,0,0
-0.3042,-0.1001,1.0002,-6.2595,-8.7252,47.5496,0,0,0
-0.3005,-0.0967,0.9441,-7.6489,-6.7328,56.6107,0,0,0
-0.2803,-0.0249,0.9314,-14.9313,-6.9084,64.9847,0,0,0
-0.2749,0.0471,0.9292,-17.3359,-6.9313,68.5038,0,0,0
-0.2346,0.095,0.9475,-17.3664,-8.3588,68.4809,0,0,0
-0.1389,0.1838,1.0393,-20.374,-5.4427,60.9008,0,0,0
-0.1536,0.1028,1.0015,-21.0687,-16.2443,55.6947,0,0,0
-0.1519,0.1677,1.0393,-14.8244,-16.9237,46.5878,0,0,0
-0.1335,0.1494,1.02,-3.916,-16.5496,39.1145,0,0,0
-0.1318,0.1836,1.0239,-3.3359,-19.1527,28.8473,0,0,0
-0.1294,0.1548,1.0686,-3.7481,-20.7023,18.7939,0,0,0
-0.1331,0.1245,1.1138,-1.0763,-20.2214,12.9466,0,0,0
-0.144,0.0994,1.1399,5.2519,-16.4427,9.7634,0,0,0
-0.1453,0.1077,1.1401,10.4351,-11.3359,7.8473,0,0,0
-0.1409,0.1294,1.0952,11.8473,-6.0763,5.0763,0,0,0
-0.1262,0.1641,1.063,7.8855,-2.5267,0.7863,0,0,0
-0.1279,0.168,1.0308,1.6031,0.7099,-3.2748,0,0,0
-0.1467,0.1472,1.0212,-4.6794,3.4427,-7.3053,0,0,0
-0.1536,0.1162,0.9988,-8.6031,4.1985,-10.0763,0,0,0
-0.1675,0.1018,1.0059,-9.6183,3.9618,-12.6412,0,0,0
-0.177,0.0977,1.0212,-6.8626,4.2214,-15.4275,0,0,0
-0.1792,0.0886,1.0198,-2.4046,5.0,-18.0992,0,0,0
-0.1746,0.0986,1.0237,-0.2748,5.1756,-21.6565,0,0,0
-0.1619,0.1194,1.0339,-0.8092,4.9924,-26.0916,0,0,0
-0.1482,0.1267,1.0244,-0.9924,5.229,-31.3664,0,0,0
-0.1367,0.1519,1.0261,-0.313,4.313,-38.3206,0,0,0
-0.1165,0.1257,1.0698,-0.5802,3.7481,-44.7481,0,0,0
-0.1187,0.1536,1.0989,-2.0992,5.4962,-54.5878,0,0,0
-0.1321,0.1064,1.106,2.2901,9.0763,-63.0382,0,0,0
-0.1487,0.0605,1.0925,8.542,11.4122,-68.1298,0,0,0
-0.1909,0.0276,1.0742,12.5115,12.4275,-70.0305,0,0,0
-0.2078,-0.0151,1.0674,13.6565,14.0687,-67.9847,0,0,0
-0.2222,-0.0376,1.0527,14.1985,18.1374,-64.5115,0,0,0
-0.2595,-0.0413,1.0156,14.7405,22.7176,-59.0382,0,0,0
-0.2856,-0.0364,0.989,13.1527,24.9389,-54.3053,0,0,0
-0.312,-0.0449,0.9382,6.771,25.4122,-49.2901,0,0,0
-0.303,-0.0754,0.9502,4.5115,25.3435,-44.3664,0,0,0
-0.3201,-0.0664,0.8928,3.0,21.9466,-39.5344,0,0,0
-0.3147,-0.072,0.9084,-0.7481,21.1069,-34.8855,0,0,0
-0.312,-0.0752,0.9104,-4.8779,18.7863,-31.4046,0,0,0
-0.323,-0.0911,0.9182,-5.6565,15.6489,-25.313,0,0,0
-0.2554,0.0359,0.99,4.8779,-5.9542,4.2824,0,0,0
-0.3384,-0.0867,0.9287,-6.6489,13.2977,-20.5191,0,0,0
-0.334,-0.0847,0.9189,-3.4275,9.1298,-16.771,0,0,0
-0.3376,-0.0764,0.908,0.1374,4.6031,-12.4504,0,0,0
-0.3389,-0.075,0.9077,-1.4275,1.3817,-10.1679,0,0,0
-0.3384,-0.0798,0.9167,-4.0229,-1.7252,-6.3282,0,0,0
-0.3315,-0.0754,0.9436,-2.5954,-4.0305,-1.5573,0,0,0
-0.324,-0.0637,0.9753,0.2748,-4.8855,2.4504,0,0,0
-0.2976,-0.0469,0.9741,1.6183,-5.5038,5.0763,0,0,0
-0.2776,-0.0063,0.9912,1.1374,-6.5878,5.8015,0,0,0
-0.2632,0.0154,1.0042,2.0534,-6.4656,5.4122,0,0,0
-0.2478,0.0432,0.9995,4.6641,-6.6031,3.0534,0,0,0
-0.2434,0.0527,1.0122,1.3817,-6.4046,1.7939,0,0,0
-0.2358,0.0461,1.0251,1.0687,-4.7481,1.0153,0,0,0
-0.2429,0.0498,1.019,0.1756,-2.4122,-0.0763,0,0,0
-0.2461,0.0518,1.0059,-3.2061,-1.7863,-1.4046,0,0,0
-0.2458,0.04,0.9961,-6.2137,-1.6107,-2.0992,0,0,0
-0.2554,0.0349,1.0002,-7.8321,-1.0992,-2.7328,0,0,0
-0.2661,0.0173,0.9956,-6.6718,-0.0153,-3.0,0,0,0
-0.2673,0.0049,0.9924,-4.1221,-0.9237,-2.5725,0,0,0
-0.2659,0.0083,0.99,-4.374,-2.0153,-2.4046,0,0,0
-0.2695,0.0061,0.9934,-3.5954,-2.084,-2.3893,0,0,0
-0.2656,-0.0049,0.9888,-1.6947,-1.6565,-1.3511,0,0,0
-0.2686,0.0125,0.9883,-2.7099,-1.5496,-0.6489,0,0,0
-0.2717,0.009,0.9687,-2.9389,-1.8702,-1.0076,0,0,0
-0.2712,0.0068,0.9497,-3.9389,-3.687,-1.084,0,0,0
-0.2712,0.0037,0.9573,-5.3282,-5.9237,-1.2901,0,0,0
-0.2693,-0.0063,0.9785,-6.626,-6.5191,-1.2214,0,0,0
-0.272,0.001,0.9822,-5.1679,-6.687,-0.8779,0,0,0
-0.271,-0.0022,0.991,-4.2595,-6.9313,-0.3053,0,0,0
-0.2639,-0.0015,0.989,-4.0611,-7.8702,0.2824,0,0,0
-0.2612,0.002,0.9978,-1.0611,-7.2824,0.7863,0,0,0
-0.2593,-0.0027,0.9839,0.855,-8.1374,1.4427,0,0,0
-0.2495,0.019,1.0117,-0.7786,-8.2137,1.771,0,0,0
-0.2471,0.022,1.0151,-1.5496,-6.4656,1.4351,0,0,0
-0.2371,0.0183,1.0125,-2.5038,-4.9618,1.1298,0,0,0
-0.2432,0.0212,1.0293,-3.9695,-4.4504,0.916,0,0,0
-0.2446,0.0261,1.0278,-3.6489,-2.5649,-0.2366,0,0,0
-0.24,0.0129,1.0051,-0.9008,-2.2366,-0.687,0,0,0
-0.2485,0.0242,0.9905,0.5649,-2.9084,-0.7634,0,0,0
-0.251,0.0208,0.9932,0.458,-4.0153,-1.8626,0,0,0
-0.2419,0.0171,0.9924,-0.5878,-4.1679,-2.5038,0,0,0
-0.2444,0.0195,1.0083,-3.1603,-4.3588,-2.2519,0,0,0
-0.2473,0.0168,1.0149,-6.4885,-2.5191,-2.0458,0,0,0
-0.249,0.0059,1.0078,-7.8244,-0.9924,-1.3206,0,0,0
-0.2451,0.0046,1.0005,-8.6336,-1.2748,-0.5954,0,0,0
-0.2454,0.0142,1.0015,-6.3206,-1.1603,-1.3893,0,0,0
-0.2449,-0.0002,0.9868,-0.5191,-1.3817,-1.5267,0,0,0
-0.2429,0.0068,0.9844,2.2672,-3.0076,-1.8626,0,0,0
-0.2458,0.0134,0.9937,1.8321,-4.0458,-2.6412,0,0,0
-0.2527,-0.009,1.0186,-0.2901,-4.1679,-2.5878,0,0,0
-0.2542,-0.0205,1.0276,-1.3588,-3.3359,-1.458,0,0,0
-0.2393,-0.0208,1.0232,-2.229,-1.916,0.2061,0,0,0
-0.2378,0.0166,0.9968,-4.1985,-0.1145,-0.0687,0,0,0
-0.2461,0.0164,0.9775,-5.6031,-0.7099,-0.3664,0,0,0
-0.2471,0.0066,0.9661,-3.2214,-2.6183,-0.3893,0,0,0
-0.2395,0.0007,0.9685,-0.7405,-4.1145,-0.2824,0,0,0
-0.2556,-0.0073,0.9497,1.3511,-6.0763,-0.6794,0,0,0
-0.2549,-0.0007,0.9351,2.6489,-8.9847,-0.2824,0,0,0
-0.2581,0.0078,0.9331,1.3817,-11.7023,-0.1527,0,0,0
-0.261,0.0002,0.9333,2.4122,-13.5191,-0.4351,0,0,0
-0.2505,-0.0068,0.8882,4.6718,-17.3588,-0.3664,0,0,0
-0.261,0.0457,0.8394,4.5802,-20.8779,-0.5649,0,0,0
-0.2637,0.0398,0.7991,2.6031,-26.2443,-2.2366,0,0,0
-0.2493,-0.0037,0.9155,-3.3359,-36.2137,-0.4733,0,0,0
-0.3064,-0.2029,0.8455,-3.0611,-40.9389,3.9924,0,0,0
-0.2764,-0.0872,1.0334,26.1679,-54.0,15.2214,0,0,0
-0.1812,0.0142,1.1963,-2.771,-40.5038,2.5573,0,0,0
-0.1987,-0.1931,1.145,-25.0687,-31.3206,11.1985,0,0,0
-0.1946,-0.1604,1.1262,-23.3511,-24.1832,25.6183,0,0,0
-0.1709,0.0198,1.0911,-18.6489,-17.2214,27.6947,0,0,0
-0.1416,0.063,0.9956,-14.1221,-20.4809,23.3817,0,0,0
-0.1235,0.0637,1.0178,-10.4198,-21.5954,17.9542,0,0,0
-0.0964,0.1277,1.0718,-10.4962,-23.2519,13.5496,0,0,0
-0.1055,0.0854,1.1028,-6.5191,-23.3359,9.229,0,0,0
-0.0886,0.0249,1.2261,-3.9389,-12.1832,4.0229,0,0,0
-0.0742,0.0239,1.1953,-0.6412,-4.9084,4.2595,0,0,0
-0.0469,0.0935,1.1257,1.1069,2.7557,-0.1374,0,0,0
-0.1089,0.1228,1.0103,-9.771,3.9695,-5.8244,0,0,0
-0.1658,0.0491,0.9736,-7.9313,2.5267,-4.3282,0,0,0
-0.175,0.0283,1.031,-7.458,5.229,-3.374,0,0,0
-0.1621,0.0005,1.0322,-8.1679,3.8702,-1.5954,0,0,0
-0.1589,0.0154,1.0403,-10.9618,4.5344,-4.2366,0,0,0
-0.1555,-0.0146,1.0315,-10.2595,4.6183,-5.5954,0,0,0
-0.1685,-0.021,0.9993,-7.0458,5.229,-4.9695,0,0,0
-0.1809,-0.0229,0.9888,-7.5954,4.0534,-4.7481,0,0,0
-0.1863,-0.0405,0.9851,-6.7939,1.855,-3.7023,0,0,0
-0.1848,-0.0447,1.0007,-5.5649,0.5191,-3.4427,0,0,0
-0.1736,-0.0601,1.0271,-4.7023,-0.3817,-1.5191,0,0,0
-0.1687,-0.0464,1.0557,-2.7786,1.7252,-0.0305,0,0,0
-0.1572,-0.0264,1.0635,-3.3282,4.3206,1.2977,0,0,0
-0.1514,-0.0195,1.0559,-3.313,6.8092,2.2672,0,0,0
-0.1763,-0.0508,1.0762,-2.0916,7.3359,4.7405,0,0,0
-0.166,-0.0073,1.1653,-5.6107,12.0687,4.8321,0,0,0
-0.1624,-0.0422,1.1584,-2.0076,18.374,6.0153,0,0,0
-0.1587,-0.0085,1.1287,-1.7786,24.9008,6.4275,0,0,0
-0.155,0.0215,1.1416,-5.8321,29.8931,5.4656,0,0,0
-0.187,-0.0278,1.2068,-15.4198,40.7099,5.1145,0,0,0
-0.1982,-0.0759,1.1511,-18.4962,50.1908,10.4427,0,0,0
-0.2141,-0.073,1.0767,-14.9695,55.4275,17.0305,0,0,0
-0.2268,-0.0266,0.9932,-11.4122,56.0305,19.8168,0,0,0
-0.2356,-0.0066,0.9429,-7.4809,52.0611,19.855,0,0,0
-0.2354,0.0122,0.9419,-4.4198,46.4275,16.8931,0,0,0
-0.2434,-0.0137,0.9434,-2.855,43.374,12.8473,0,0,0
-0.2383,-0.0051,0.9133,0.0,39.2366,11.0916,0,0,0
-0.2471,0.0049,0.8784,1.9771,33.9084,9.5267,0,0,0
-0.2673,0.0354,0.8396,0.9847,28.084,5.8092,0,0,0
-0.2603,0.042,0.7969,-2.6641,19.5114,1.7176,0,0,0
-0.2605,0.0298,0.8125,-1.9924,11.1069,-0.5878,0,0,0
-0.281,0.0305,0.8384,2.5496,5.5802,-2.6794,0,0,0
-0.2844,0.0234,0.8447,3.8473,-0.4351,-5.5573,0,0,0
-0.2876,0.0098,0.8684,3.0916,-6.9847,-7.2519,0,0,0
-0.2937,0.0029,0.9102,2.0382,-11.8931,-8.3053,0,0,0
-0.2859,-0.0168,0.9399,3.4504,-13.9924,-8.9466,0,0,0
-0.2866,-0.0154,0.9578,5.7481,-15.6031,-8.8015,0,0,0
-0.2866,-0.0193,0.9807,5.4733,-17.542,-8.8092,0,0,0
-0.2903,-0.0261,1.0359,2.8626,-17.5496,-9.1527,0,0,0
-0.2725,-0.051,1.0706,2.084,-14.5344,-7.2214,0,0,0
-0.2595,-0.0662,1.0869,2.5496,-8.5573,-3.0229,0,0,0
-0.2661,-0.0566,1.1218,0.3206,-1.7099,1.5878,0,0,0
-0.2576,-0.0391,1.1094,-1.0305,5.2901,5.0611,0,0,0
-0.2451,-0.0181,1.0547,0.2137,9.2901,7.1679,0,0,0
-0.2375,0.0229,1.0007,0.1908,10.374,6.0153,0,0,0
-0.2454,0.052,0.9438,-1.687,8.229,3.0076,0,0,0
-0.2468,0.0583,0.9153,-1.4351,3.8931,-1.0992,0,0,0
-0.2493,0.05,0.9011,-1.9313,-1.2595,-4.9389,0,0,0
-0.2568,0.0217,0.9236,-2.5802,-5.2214,-7.6641,0,0,0
-0.2673,0.0,0.969,-3.2595,-5.9008,-8.8779,0,0,0
-0.2766,-0.0288,0.9858,-3.6641,-5.4046,-7.313,0,0,0
-0.2764,-0.0476,1.0046,-3.6794,-4.2137,-4.1527,0,0,0
-0.2773,-0.0425,1.0112,-3.8015,-2.5802,-1.542,0,0,0
-0.2781,-0.0344,1.0117,-4.6183,-1.8779,-0.7176,0,0,0
-0.2722,-0.03,1.0029,-3.8626,-2.1527,-0.4885,0,0,0
-0.2639,-0.0166,0.9951,-2.0763,-3.4427,-0.9466,0,0,0
-0.2578,-0.0071,0.9841,-0.0229,-4.5725,-2.0611,0,0,0
-0.2585,-0.002,0.9697,1.4885,-5.7939,-3.0229,0,0,0
-0.2588,0.0056,0.978,2.2824,-6.3435,-3.7328,0,0,0
-0.2573,0.0002,0.9856,2.1374,-6.9466,-3.5802,0,0,0
-0.2571,-0.0078,1.0044,0.6565,-6.8855,-3.6183,0,0,0
-0.2566,-0.0125,1.0149,-0.855,-5.1756,-2.8244,0,0,0
-0.2534,-0.0208,1.0222,-2.1832,-3.5191,-1.626,0,0,0
-0.2505,-0.0227,1.0349,-2.0992,-1.5725,0.1527,0,0,0
-0.248,-0.0059,1.0164,-1.8626,-0.1756,0.5038,0,0,0
-0.2468,0.0085,0.9971,-2.229,0.0229,-0.6489,0,0,0
-0.248,0.0037,0.9988,0.0992,-0.4733,-0.9695,0,0,0
-0.2466,0.0039,1.002,1.4427,-0.7481,-1.7099,0,0,0
-0.2476,0.0046,0.9998,-0.0305,-1.0,-2.3893,0,0,0
-0.2539,-0.0049,1.0017,-2.5954,-0.8168,-2.6031,0,0,0
-0.2646,-0.0173,0.9995,-5.0,0.1145,-2.2672,0,0,0
-0.2654,-0.02,0.9871,-5.2214,0.3359,-1.2595,0,0,0
-0.2644,-0.0208,0.9778,-6.1603,0.1679,-0.5725,0,0,0
-0.2629,-0.0168,0.9666,-5.0916,-0.5115,-0.2061,0,0,0
-0.2585,-0.0176,0.9707,-2.1069,-2.2519,0.2519,0,0,0
-0.2593,-0.0056,0.9927,-1.1679,-3.7634,-0.6947,0,0,0
-0.2507,-0.0151,1.002,0.8855,-3.771,-1.458,0,0,0
-0.2603,-0.0115,1.0193,1.916,-3.1832,-1.3206,0,0,0
-0.2542,-0.0134,1.0154,0.5344,-2.8244,-0.8321,0,0,0
-0.2444,-0.012,1.0054,-1.0153,-1.2824,-0.2672,0,0,0
-0.252,-0.0022,0.9985,-1.687,-0.2595,0.2519,0,0,0
-0.2546,0.001,0.988,-2.4962,0.0229,0.2366,0,0,0
-0.251,0.0054,0.9761,-3.2977,-0.9695,0.5802,0,0,0
-0.2463,0.0078,0.9763,-4.2672,-2.145,-0.2443,0,0,0
-0.2549,0.0105,0.9832,-5.1679,-2.7863,-1.4504,0,0,0
-0.2544,-0.0059,1.0032,-4.9695,-4.0382,-2.1603,0,0,0
-0.2422,-0.0381,1.031,-2.5878,-3.3588,-1.2214,0,0,0
-0.2478,-0.0308,1.0388,-0.3282,-0.6718,-0.0458,0,0,0
-0.2534,-0.0237,1.0181,1.1374,0.855,0.855,0,0,0
-0.2581,-0.0176,1.0007,2.4122,0.8855,0.9618,0,0,0
-0.2502,0.0042,0.9973,0.313,0.2901,0.4427,0,0,0
-0.2515,0.0042,0.9839,-1.8931,-0.0153,-0.0611,0,0,0
-0.2554,-0.0144,1.0034,-5.3969,0.4046,0.3817,0,0,0
-0.2671,-0.0342,1.0227,-7.7023,2.4046,2.1374,0,0,0
-0.2703,-0.0515,1.0151,-8.916,4.8855,4.3359,0,0,0
-0.2717,-0.0525,1.0024,-8.771,4.8779,7.6107,0,0,0
-0.2805,-0.0552,0.9712,-7.1679,4.916,9.9542,0,0,0
-0.3005,-0.0732,0.926,-4.4885,3.2443,12.0534,0,0,0
-0.2983,-0.0801,0.9062,-5.3969,-1.6336,15.7176,0,0,0
-0.2886,-0.0818,0.9373,-7.2672,-5.0916,18.5725,0,0,0
-0.2935,-0.1392,0.9207,-8.7786,-6.4198,21.4351,0,0,0
-0.3071,-0.177,0.9133,-11.7481,-8.9008,27.2137,0,0,0
-0.3301,-0.1897,0.9268,-13.8626,-11.0076,36.0076,0,0,0
-0.3269,-0.167,0.9785,-13.1908,-12.9389,44.7939,0,0,0
-0.3274,-0.1597,1.0544,-8.9084,-12.4275,51.4351,0,0,0
-0.2996,-0.1531,1.1179,-1.1069,-8.1298,58.7863,0,0,0
-0.249,-0.0781,1.1282,-1.2366,-2.4504,61.2366,0,0,0
-0.209,-0.0225,1.0869,0.0153,1.9313,60.458,0,0,0
-0.1812,0.0457,1.0498,5.0076,4.9466,57.5878,0,0,0
-0.1523,0.1558,1.0493,4.5038,9.0916,47.8855,0,0,0
-0.1897,0.1794,0.979,2.6565,4.1985,38.771,0,0,0
-0.188,0.165,0.9514,2.0763,-0.7786,31.0229,0,0,0
-0.1738,0.177,0.9695,3.4733,-5.7634,22.6947,0,0,0
-0.1592,0.166,0.9968,9.6641,-7.4275,17.2137,0,0,0
-0.1504,0.1875,1.0225,12.0,-7.0687,10.3435,0,0,0
-0.1597,0.2034,1.0122,11.0153,-5.5802,4.3817,0,0,0
-0.1584,0.1729,1.0085,6.3588,-4.6183,-1.4046,0,0,0
-0.1765,0.1462,1.0166,1.5496,-3.0,-6.1756,0,0,0
-0.1846,0.1096,1.0234,-2.2366,-0.6107,-9.2061,0,0,0
-0.2119,0.0757,1.0247,-5.0305,0.9237,-9.8473,0,0,0
-0.2241,0.0537,1.0425,-6.7405,2.3664,-11.1908,0,0,0
-0.2432,0.0173,1.0488,-4.6031,4.4504,-12.0916,0,0,0
-0.2488,-0.0161,1.0303,-3.8626,6.1908,-11.2824,0,0,0
-0.2666,-0.0273,1.0134,-4.7481,7.0916,-8.7481,0,0,0
-0.2737,-0.0286,0.9922,-4.9313,8.084,-7.0534,0,0,0
-0.2778,-0.0359,0.9807,-6.0763,7.7863,-4.9237,0,0,0
-0.2725,-0.0271,0.9636,-4.626,6.8168,-3.313,0,0,0
-0.2769,-0.0146,0.9365,-2.0305,4.313,-3.3664,0,0,0
-0.269,-0.0076,0.9248,-1.9542,0.5344,-4.4351,0,0,0
-0.2646,-0.0134,0.9514,-1.4122,-2.9389,-5.0534,0,0,0
-0.2571,-0.0078,0.9883,-0.3282,-4.3053,-4.8321,0,0,0
-0.2495,0.0083,1.0117,-1.5267,-3.9313,-4.2672,0,0,0
-0.2454,0.0215,1.0166,0.458,-2.5649,-5.0611,0,0,0
-0.2314,0.0476,1.0042,3.771,-3.0076,-5.458,0,0,0
-0.2126,0.0686,1.0105,4.7863,-4.5115,-8.7786,0,0,0
-0.1978,0.0894,1.0081,6.4962,-4.8244,-13.7099,0,0,0
-0.1992,0.1086,1.0151,8.5115,-5.7176,-19.4198,0,0,0
-0.2727,-0.0334,1.0271,12.8397,14.8626,-45.8168,0,0,0
-0.2041,0.0974,1.0388,9.5649,-5.9313,-25.771,0,0,0
-0.1914,0.0925,1.0439,12.0305,-6.3359,-31.5573,0,0,0
-0.1736,0.0896,1.0552,17.5802,-6.1603,-35.3893,0,0,0
-0.157,0.1208,1.0735,22.7023,-5.6031,-41.6565,0,0,0
-0.155,0.1226,1.0562,26.1832,-4.1527,-50.3511,0,0,0
-0.1824,0.0916,1.0515,28.8779,-4.1527,-56.2366,0,0,0
-0.2217,0.0637,1.0588,27.3817,-2.084,-59.3588,0,0,0
-0.2483,0.0366,1.0752,23.5954,2.2595,-58.2519,0,0,0
-0.2542,-0.0122,1.0627,18.7786,8.3206,-53.2824,0,0,0
-0.2964,-0.0469,0.9749,7.5954,18.542,-36.4427,0,0,0
-0.3171,-0.0371,0.9189,0.5802,19.4198,-28.0687,0,0,0
-0.3191,-0.0293,0.9019,-4.7863,17.6336,-22.0153,0,0,0
-0.3118,-0.0486,0.9048,-9.1908,15.2901,-17.2901,0,0,0
-0.3271,-0.0559,0.905,-10.7481,12.9084,-13.5725,0,0,0
-0.3345,-0.0625,0.8989,-9.8931,9.3664,-10.0382,0,0,0
-0.3333,-0.0684,0.906,-9.7252,4.7328,-6.8397,0,0,0
-0.3293,-0.0688,0.9255,-8.4733,0.458,-3.4885,0,0,0
-0.3242,-0.0696,0.9526,-6.542,-2.8473,-0.1603,0,0,0
-0.3091,-0.0669,0.9871,-3.6489,-3.5878,2.8779,0,0,0
-0.2913,-0.0486,0.989,0.1374,-3.9084,5.7252,0,0,0
-0.2849,-0.0095,0.9966,1.145,-4.8015,6.0076,0,0,0
-0.2717,0.0,0.9888,3.2824,-5.8779,5.8931,0,0,0
-0.2551,0.0198,0.991,4.3359,-6.916,5.5038,0,0,0
-0.2461,0.0352,0.9912,2.9924,-7.0229,5.0153,0,0,0
-0.2451,0.0422,1.0007,0.687,-6.6031,4.9618,0,0,0
-0.2463,0.052,1.0022,-1.771,-5.7939,5.1374,0,0,0
-0.2419,0.0632,0.9993,-6.1374,-4.5878,4.4122,0,0,0
-0.2439,0.0608,1.0117,-7.7023,-3.3817,4.3969,0,0,0
-0.2444,0.0618,0.9971,-7.3588,-2.4275,3.5649,0,0,0
-0.2439,0.0571,0.991,-7.2519,-2.626,2.6947,0,0,0
-0.251,0.0505,1.0,-5.2977,-2.3282,2.1832,0,0,0
-0.2578,0.0388,1.0051,-3.6641,-2.0153,1.458,0,0,0
-0.2524,0.0266,1.0066,-5.3359,-2.7252,0.916,0,0,0
-0.2559,0.0215,1.0125,-7.0,-1.9313,0.6031,0,0,0
-0.2563,0.019,1.012,-6.4351,-0.4198,0.4122,0,0,0
-0.2644,0.0215,0.9915,-6.2214,-0.458,0.5191,0,0,0
-0.2646,0.021,0.9766,-6.1832,-1.7176,0.3511,0,0,0
-0.259,0.002,0.9792,-5.7634,-3.1374,0.1756,0,0,0
-0.2539,0.0034,0.9792,-4.542,-4.2595,0.916,0,0,0
-0.2639,0.0098,0.9807,-2.9847,-5.1832,0.9313,0,0,0
-0.2634,0.0024,0.9954,-3.3969,-5.7481,0.3206,0,0,0
-0.2493,0.0073,1.011,-3.3588,-5.313,1.0534,0,0,0
-0.2441,0.0186,1.0308,-2.9389,-3.5725,1.4733,0,0,0
-0.2524,0.0317,1.0176,-2.2595,-1.229,1.2672,0,0,0
-0.2534,0.0261,1.0022,-3.0,-0.7481,1.1603,0,0,0
-0.2512,0.0205,0.9949,-1.0534,-1.3588,1.5496,0,0,0
-0.2485,0.0376,0.9978,-1.1908,-1.9847,0.9389,0,0,0
-0.2461,0.0281,0.9939,-3.8244,-2.0534,0.1221,0,0,0
-0.2434,0.0186,0.9934,-5.374,-2.0458,0.0763,0,0,0
-0.2495,0.0237,1.0027,-7.458,-1.8244,0.2443,0,0,0
-0.2454,0.0215,1.0015,-9.0458,-1.0458,0.1832,0,0,0
-0.2444,0.0256,0.9851,-8.458,-1.1069,-0.3511,0,0,0
-0.2463,0.0212,0.9634,-6.9924,-1.8626,-0.7099,0,0,0
-0.2512,0.0127,0.9819,-6.8931,-4.1069,-1.1908,0,0,0
-0.2551,-0.001,0.9907,-4.2824,-4.6794,-0.626,0,0,0
-0.2534,-0.0032,0.9961,-3.4427,-4.4962,-0.0305,0,0,0
-0.2559,-0.0127,1.0312,-2.8855,-4.6565,0.229,0,0,0
-0.2483,-0.0088,1.0422,-2.5573,-3.2672,0.4962,0,0,0
-0.2388,-0.0037,1.0339,0.2366,-0.9618,1.2901,0,0,0
-0.2407,0.0234,1.0061,0.855,-0.1985,1.0458,0,0,0
-0.2427,0.0354,0.9849,-0.4809,-1.313,-0.6183,0,0,0
-0.2388,0.0232,0.9763,-1.7252,-3.0153,-1.6183,0,0,0
-0.2417,0.0212,0.9897,-2.2519,-3.4427,-1.6794,0,0,0
-0.2456,0.0154,1.0115,-3.1985,-2.0382,-1.3664,0,0,0
-0.2512,0.0073,1.0186,-2.7481,-0.6565,-0.4122,0,0,0
-0.2458,0.0093,1.0229,-3.4962,0.7328,0.6183,0,0,0
-0.2415,0.0183,1.0081,-4.2137,1.5649,0.8702,0,0,0
-0.2385,0.0254,0.9895,-3.6641,1.8244,-0.2061,0,0,0
-0.2349,0.0354,0.9785,-3.8931,0.2824,-1.8015,0,0,0
-0.2419,0.0217,0.9875,-4.4733,-1.313,-3.3511,0,0,0
-0.2476,-0.0005,1.0105,-4.8473,-1.3664,-3.4656,0,0,0
-0.2512,-0.0127,1.0212,-4.1527,-0.7939,-2.7252,0,0,0
-0.2463,-0.0034,1.0188,-3.5725,-0.2901,-1.8397,0,0,0
-0.2471,0.0103,1.0059,-3.2672,0.2443,-2.2824,0,0,0
-0.2527,-0.0098,0.9849,1.2672,0.1985,-1.7328,0,0,0
-0.2532,-0.0012,0.9824,3.0534,-0.7786,-0.7405,0,0,0
-0.2466,0.0117,0.978,0.9618,-1.8702,-1.0,0,0,0
-0.2388,0.0056,0.9988,-2.0534,-1.9008,-0.7939,0,0,0
-0.249,-0.0012,1.0024,-2.8397,-0.7481,-0.0382,0,0,0
-0.2424,0.0073,1.0042,-3.2901,-0.4427,0.4962,0,0,0
-0.2429,0.0039,0.999,-3.5954,-0.8931,-0.0076,0,0,0
-0.2371,0.0164,0.9966,-3.9084,-1.6031,-1.0229,0,0,0
-0.2371,0.0107,0.9946,-5.0687,-2.1221,-2.0611,0,0,0
-0.2542,0.0022,1.0042,-2.5878,-1.9847,-1.8397,0,0,0
-0.2532,-0.0105,1.019,3.0,-1.1908,-0.626,0,0,0
-0.2476,0.0095,1.0125,2.8855,-1.0,0.0305,0,0,0
-0.2466,0.0139,1.0032,0.6107,-1.1374,-0.1603,0,0,0
-0.2412,0.0144,1.0012,-0.0458,-0.6641,-0.2977,0,0,0
-0.2385,0.0132,1.0117,-2.2595,-0.3435,-0.5496,0,0,0
-0.2375,0.0208,0.9929,-3.8931,0.3435,-1.0687,0,0,0
-0.2402,0.0186,0.9778,-5.1985,0.0,-1.3206,0,0,0
-0.2522,0.0159,0.9768,-4.1527,-0.5344,-1.5725,0,0,0
-0.2495,0.0022,0.9861,-1.8626,-1.2519,-0.8779,0,0,0
-0.2485,0.0059,0.9873,-2.1908,-2.3282,-0.9237,0,0,0
-0.2451,0.0032,0.9949,-1.3664,-2.4427,-1.5649,0,0,0
-0.2378,-0.0022,1.0085,-0.7328,-1.8397,-1.3511,0,0,0
-0.2366,0.0017,1.0105,-2.3817,-2.1221,-1.1832,0,0,0
-0.2395,-0.0078,1.0361,-4.5573,-0.8779,-0.9466,0,0,0
-0.2461,-0.0122,1.0378,-2.8779,1.3588,-0.0687,0,0,0
-0.2441,0.001,1.0088,-1.2443,1.8855,0.1908,0,0,0
-0.2434,0.0117,0.9766,-1.1985,0.8321,0.0534,0,0,0
-0.2429,0.021,0.9709,-0.4885,-0.6107,-0.8015,0,0,0
-0.2375,0.0142,0.9836,2.5649,-0.9695,-1.3053,0,0,0
-0.2358,0.0178,0.9834,1.1756,-1.4656,-1.4885,0,0,0
-0.2371,0.0203,0.9839,-1.7099,-1.8702,-1.6336,0,0,0
-0.2505,0.0144,1.0024,-3.9313,-1.5267,-1.8244,0,0,0
-0.2456,-0.0012,1.0083,-3.4046,-0.5878,-0.8168,0,0,0
-0.25,-0.0029,0.9924,-4.3588,-0.5954,0.2519,0,0,0
-0.2502,0.0098,0.9937,-5.0687,-1.0153,-0.1679,0,0,0
-0.2429,0.0059,0.9958,-5.2748,-1.3511,-0.9237,0,0,0
-0.2483,-0.0017,1.0107,-5.1832,-1.7252,-0.8931,0,0,0
-0.2427,-0.0085,1.0232,-4.5267,-1.6718,-0.3817,0,0,0
-0.2476,-0.0044,1.0164,-1.8397,-0.8168,-0.0534,0,0,0
-0.2463,-0.0066,1.0083,2.5191,0.084,0.1069,0,0,0
-0.2415,0.0063,0.9939,3.4427,-0.7481,-0.313,0,0,0
-0.2371,0.0164,0.981,2.1298,-2.0382,-0.8244,0,0,0
-0.2354,0.0198,0.9912,-0.4504,-1.8931,-1.5496,0,0,0
-0.2395,0.0176,0.999,-3.5802,-1.0458,-1.5802,0,0,0
-0.2439,0.0125,1.001,-5.6565,-0.1374,-0.9924,0,0,0
-0.24,0.001,1.0056,-6.7099,-0.0076,-0.2519,0,0,0
-0.2412,0.0073,1.0015,-5.7557,-0.0458,-0.2977,0,0,0
-0.2375,0.01,0.9958,-2.9237,-0.2748,-0.7481,0,0,0
-0.2415,0.0076,0.9937,-0.5649,-0.9389,-1.542,0,0,0
-0.2432,0.0029,0.9895,1.0458,-1.1374,-1.916,0,0,0
-0.2434,0.0117,0.9863,0.9847,-1.8015,-2.084,0,0,0
-0.2427,0.0078,1.0029,-1.5496,-2.0992,-1.8092,0,0,0
-0.2449,-0.0112,1.0203,-1.2977,-0.7786,-0.8168,0,0,0
-0.2432,-0.0027,1.0164,-0.084,0.7634,0.0153,0,0,0
-0.2415,0.0105,0.9927,-1.2672,0.4351,-0.2901,0,0,0
-0.2397,0.0044,0.9907,-1.8244,-1.1679,-1.1298,0,0,0
-0.2302,0.0173,0.9905,-3.0382,-0.2672,-1.084,0,0,0
-0.2354,0.0076,1.0049,-2.6412,-0.2214,-1.4885,0,0,0
-0.2463,0.0,0.9985,-0.4885,0.1298,-1.2595,0,0,0
-0.2388,0.0007,0.9863,-0.2901,-0.4198,-0.6565,0,0,0
-0.2437,0.009,0.9927,-1.229,-1.3053,-1.2824,0,0,0
-0.2407,0.0054,1.0032,-2.4885,-1.1603,-1.4427,0,0,0
-0.2363,-0.0061,1.0015,-4.0763,-0.8321,-0.8779,0,0,0
-0.2363,0.0049,1.0051,-4.2214,-0.6565,-0.2366,0,0,0
-0.2385,0.0085,1.0061,-3.4351,-0.3969,-1.0382,0,0,0
-0.2415,0.0088,0.9968,-1.2672,-2.3969,-1.7176,0,0,0
-0.25,0.0029,1.0095,-1.4351,-2.313,-2.1298,0,0,0
-0.2424,-0.0029,1.0002,-6.2061,0.3282,-1.1145,0,0,0
-0.2539,-0.0195,1.0352,0.542,-0.7481,-0.6183,0,0,0
-0.2424,-0.0088,1.0203,1.0,0.5038,1.1908,0,0,0
-0.2373,0.0164,1.0012,-0.4656,0.7634,0.9771,0,0,0
-0.2305,0.022,0.9871,-1.6336,0.145,0.0076,0,0,0
-0.2268,0.0313,0.9907,-2.1527,-0.1832,-1.0611,0,0,0
-0.2307,0.022,0.9871,-2.9771,-0.1069,-2.229,0,0,0
-0.2354,0.0098,1.0024,-4.145,-0.8702,-2.4885,0,0,0
-0.2417,-0.0071,1.0068,-4.1069,-0.5344,-2.145,0,0,0
-0.2437,-0.0078,1.0017,-4.855,0.1679,-1.5191,0,0,0
-0.2532,0.0024,0.9949,-4.229,-0.0382,-0.7481,0,0,0
-0.2473,0.0012,0.9851,-1.1374,-0.6031,-0.6947,0,0,0
-0.2458,0.009,0.98,-1.0534,-1.7863,-1.1069,0,0,0
-0.2371,0.0029,0.9895,-2.1908,-3.0687,-1.6794,0,0,0
-0.2483,0.0002,1.0112,-3.8473,-2.2672,-1.3588,0,0,0
-0.2454,-0.0159,1.0308,-3.0992,-1.1603,0.313,0,0,0
-0.2322,-0.0083,1.0349,-3.3435,0.2824,1.1756,0,0,0
-0.2302,0.0017,1.0234,-4.0,1.3206,1.084,0,0,0
-0.2312,0.0117,1.0017,-2.7328,1.4275,0.0229,0,0,0
-0.2422,0.0161,0.9729,-0.626,0.458,-1.6794,0,0,0
-0.2434,0.0164,0.967,1.5496,-1.0076,-2.3053,0,0,0
-0.2449,0.0066,0.9775,2.3435,-2.1603,-2.0534,0,0,0
-0.2529,0.0049,0.9905,0.1221,-2.7176,-1.9924,0,0,0
-0.2419,-0.0063,1.0005,-2.3435,-2.4809,-0.9084,0,0,0
-0.241,-0.0105,1.019,-3.3435,-1.0763,0.1145,0,0,0
-0.2393,-0.0056,1.0178,-3.145,0.3664,0.6107,0,0,0
-0.2371,0.0085,1.0,-3.0763,0.6183,0.2214,0,0,0
-0.2351,0.0203,0.9937,-3.0458,-0.4733,-0.6183,0,0,0
-0.2312,0.0171,0.9951,-3.3282,-0.9695,-2.1298,0,0,0
-0.2395,0.0046,0.9949,-1.6336,-0.7786,-2.3435,0,0,0
-0.2356,0.0015,0.9966,-2.2443,-0.7023,-1.9084,0,0,0
-0.2415,-0.01,1.009,-4.5344,-0.8473,-1.1527,0,0,0
-0.2446,-0.0154,1.0122,-3.7863,-0.0076,-0.2901,0,0,0
-0.2437,-0.0173,1.0137,-1.3969,0.6031,0.1756,0,0,0
-0.2385,-0.0022,0.9905,-0.7023,-0.2672,0.1985,0,0,0
-0.2356,0.009,0.9758,0.855,-1.1985,-0.855,0,0,0
-0.2373,0.0151,0.9766,0.5878,-2.7786,-1.7557,0,0,0
-0.2405,0.0063,0.9866,-0.3435,-3.3359,-2.229,0,0,0
-0.2451,-0.0081,1.0024,-1.4656,-3.145,-1.5954,0,0,0
-0.241,-0.0139,1.0378,-3.6947,-1.7405,-0.3359,0,0,0
-0.2354,-0.0134,1.0342,-3.6489,0.2977,1.1603,0,0,0
-0.2334,0.0098,1.0181,-2.9771,1.5725,1.0076,0,0,0
-0.2385,0.0183,0.9863,-1.7863,1.2748,0.1145,0,0,0
-0.2397,0.0088,0.9814,1.0382,-0.4809,-1.0916,0,0,0
-0.2378,0.0122,0.9785,3.4656,-2.4427,-1.9389,0,0,0
-0.2385,0.0081,0.9939,3.5496,-2.9084,-2.9237,0,0,0
-0.2456,-0.0068,1.0134,1.7099,-2.6794,-2.3053,0,0,0
-0.2463,-0.0173,1.031,0.4427,-0.7099,-0.3893,0,0,0
-0.241,-0.0085,1.0215,0.0382,1.626,1.145,0,0,0
-0.239,0.0034,1.0132,-0.7405,2.2824,1.8702,0,0,0
-0.2415,0.009,1.0142,-3.1985,2.2061,0.6489,0,0,0
-0.2368,0.0063,1.0247,-5.084,2.0763,-0.1908,0,0,0
-0.2371,-0.0015,1.0503,-7.3511,3.7176,-0.0992,0,0,0
-0.2454,-0.0181,1.0752,-9.5344,8.4656,0.6794,0,0,0
-0.2424,-0.0237,1.1047,-13.9084,13.7023,2.9313,0,0,0
-0.2422,-0.0276,1.1245,-21.916,21.5191,5.8473,0,0,0
-0.2449,-0.033,1.0864,-25.4046,28.7405,9.8702,0,0,0
-0.2588,-0.0205,1.0515,-22.7786,32.5954,12.5038,0,0,0
-0.2549,0.0103,1.0071,-18.0305,32.6794,14.3282,0,0,0
-0.2454,0.0356,0.9829,-13.0,29.8931,12.0229,0,0,0
-0.2446,0.0215,1.0076,-8.7023,28.5038,9.3893,0,0,0
-0.2505,0.0237,1.03,-4.687,28.7481,5.2519,0,0,0
-0.2581,-0.0132,1.0076,-0.2443,30.8397,4.0382,0,0,0
-0.2849,-0.019,0.9839,4.4504,29.626,7.1145,0,0,0
-0.303,-0.0002,0.926,4.1374,29.7481,6.7405,0,0,0
-0.313,-0.0078,0.9116,1.6947,28.0,6.5191,0,0,0
-0.3201,-0.0122,0.8994,1.9771,23.7634,7.5191,0,0,0
-0.3213,-0.0127,0.9312,-0.6336,22.1374,6.1069,0,0,0
-0.3281,-0.0422,0.9207,-1.4656,20.3817,6.458,0,0,0
-0.3193,-0.0251,0.9136,-2.0916,17.4885,6.9542,0,0,0
-0.3264,-0.0002,0.9065,-3.9542,12.9847,5.626,0,0,0
-0.3254,-0.0059,0.9009,-5.7634,8.7023,4.1527,0,0,0
-0.3293,-0.0234,0.9683,-5.0305,6.542,2.5038,0,0,0
-0.3376,-0.0466,0.9822,0.1756,6.1908,3.2214,0,0,0
-0.3474,-0.03,1.0276,1.687,7.5038,4.0305,0,0,0
-0.3289,-0.0452,1.0303,-0.4046,10.8397,6.6565,0,0,0
-0.3276,-0.0044,0.9985,-0.5115,13.8855,9.1832,0,0,0
-0.3267,0.0339,0.9287,-2.5878,14.3511,8.3282,0,0,0
-0.3198,0.0527,0.8774,-4.5267,10.3435,5.8702,0,0,0
-0.3196,0.0684,0.8604,-7.0992,4.0916,0.5344,0,0,0
-0.3171,0.0366,0.8748,-3.1527,-3.6107,-3.0611,0,0,0
-0.3196,0.042,0.8948,2.2519,-8.1603,-6.5267,0,0,0
-0.3218,0.0298,0.8877,4.1679,-11.7634,-9.3435,0,0,0
-0.325,0.0342,0.8767,4.8397,-16.855,-11.4198,0,0,0
-0.3225,0.0439,0.8855,3.2214,-21.2519,-13.9618,0,0,0
-0.3225,0.0254,0.8892,1.5573,-25.2901,-16.6336,0,0,0
-0.3208,0.0071,0.8984,1.0382,-29.0382,-18.4275,0,0,0
-0.3235,-0.012,0.9268,1.3511,-32.1221,-18.2824,0,0,0
-0.3208,-0.0251,0.9607,2.8473,-33.0687,-17.5496,0,0,0
-0.3115,-0.0466,0.9949,3.687,-32.5954,-16.3893,0,0,0
-0.3162,-0.0547,1.0215,2.5802,-30.6947,-15.1985,0,0,0
-0.3052,-0.0605,1.0261,1.8702,-29.145,-12.5649,0,0,0
-0.2991,-0.0608,1.0276,2.4962,-26.8855,-9.5115,0,0,0
-0.2866,-0.0491,1.0164,4.8244,-25.4046,-6.9771,0,0,0
-0.2783,-0.032,1.012,5.8473,-24.1221,-4.374,0,0,0
-0.2668,-0.0232,1.0154,6.1145,-22.3893,-2.4275,0,0,0
-0.2729,-0.0115,1.0447,5.2214,-19.7939,-1.4351,0,0,0
-0.2698,-0.0168,1.0823,3.0534,-15.8473,-0.4275,0,0,0
-0.262,-0.0259,1.0881,3.0458,-10.916,1.2595,0,0,0
-0.2517,-0.0073,1.0781,3.229,-6.7405,3.2366,0,0,0
-0.2405,0.0298,1.0454,1.6718,-4.0229,2.8931,0,0,0
-0.2412,0.0459,1.0193,-0.7481,-2.7328,0.8015,0,0,0
-0.2419,0.0344,1.0056,-1.2061,-2.1603,-0.7786,0,0,0
-0.2476,0.0181,1.0146,-1.9542,-2.0,-1.5649,0,0,0
-0.2515,0.0083,1.0059,-3.1756,-1.458,-2.3893,0,0,0
-0.2595,-0.0012,1.0122,-2.6565,0.0,-1.8473,0,0,0
-0.2625,-0.0059,1.0054,-2.2519,1.1069,-1.4275,0,0,0
-0.2607,-0.0044,0.9895,-2.9313,1.626,-0.6107,0,0,0
-0.2571,-0.002,0.9812,-4.0458,1.1985,-0.1756,0,0,0
-0.2598,0.0027,0.981,-3.9313,0.9542,-0.3664,0,0,0
-0.2671,-0.0059,0.9695,-1.5802,-0.2443,-0.4885,0,0,0
-0.2698,-0.0073,0.9851,-1.8321,-1.6489,-0.6412,0,0,0
-0.2703,-0.0146,1.0046,-1.0382,-2.2901,-0.4198,0,0,0
-0.2651,-0.0137,0.9995,-0.0916,-1.6565,-0.1985,0,0,0
-0.2651,-0.0098,0.9856,-1.2214,-1.626,0.2977,0,0,0
-0.2646,0.0024,0.981,-2.6183,-1.7481,0.5115,0,0,0
-0.2598,-0.0002,0.978,-4.1756,-2.3359,0.5573,0,0,0
-0.2754,-0.0056,0.97,-4.687,-3.8168,0.9313,0,0,0
-0.2764,-0.0171,0.9658,-1.9542,-4.7176,1.3969,0,0,0
-0.2693,-0.002,0.9551,-0.0153,-6.7481,0.9542,0,0,0
-0.2549,0.0059,0.9478,-1.8702,-10.1679,0.6336,0,0,0
-0.2468,-0.0144,0.9487,-3.0,-13.1145,0.229,0,0,0
-0.2534,-0.0256,0.9524,-4.6641,-15.0305,1.0458,0,0,0
-0.269,-0.0349,0.9507,-9.4275,-16.8244,1.7939,0,0,0
-0.2725,-0.0564,0.9763,-12.1908,-17.8092,4.7863,0,0,0
-0.2705,-0.0564,1.0029,-14.7863,-17.1679,9.0763,0,0,0
-0.2534,-0.0588,1.0413,-17.7176,-14.916,11.8168,0,0,0
-0.2522,-0.064,1.0786,-17.1069,-11.771,15.6183,0,0,0
-0.2498,-0.0488,1.1216,-14.1908,-6.0992,17.687,0,0,0
-0.2417,-0.0503,1.1152,-6.4962,0.229,17.8321,0,0,0
-0.2295,-0.0173,1.0942,-1.626,2.4962,17.5954,0,0,0
-0.2209,0.0027,1.0659,0.9542,2.6947,15.542,0,0,0
-0.1936,0.0212,1.0569,2.3664,4.1832,14.2977,0,0,0
-0.1948,0.0635,1.04,0.4351,7.2443,11.6947,0,0,0
-0.1907,0.0667,0.9766,-3.8244,8.626,9.0611,0,0,0
-0.1931,0.0889,0.9587,-10.4198,8.0916,6.6641,0,0,0
-0.207,0.074,0.949,-12.1603,7.855,4.4046,0,0,0
-0.2385,0.0703,0.9563,-10.5038,6.8931,1.1527,0,0,0
-0.2517,0.0271,0.9421,-9.2901,3.687,-1.0687,0,0,0
-0.2656,-0.0171,0.9885,-8.916,1.1832,-1.1527,0,0,0
-0.2556,-0.0391,1.0173,-6.8473,1.9313,0.4198,0,0,0
-0.2512,-0.0361,1.0212,-3.5038,4.0916,1.8931,0,0,0
-0.2559,-0.0361,1.0054,-3.5191,4.0763,2.542,0,0,0
-0.2576,-0.0229,1.0044,-5.1756,3.4656,1.2061,0,0,0
-0.2585,-0.0374,0.9736,-6.1756,1.9618,0.1832,0,0,0
-0.2695,-0.0535,0.9675,-8.2443,0.4809,1.4809,0,0,0
-0.2791,-0.0574,0.9565,-12.0611,-0.084,4.1908,0,0,0
-0.2778,-0.0642,0.9644,-13.5649,0.0153,7.8015,0,0,0
-0.2703,-0.0603,0.9827,-11.9008,0.0992,10.7252,0,0,0
-0.2656,-0.0696,0.9961,-9.8321,-0.0153,11.7634,0,0,0
-0.2583,-0.0662,1.0112,-8.7939,-0.6718,13.1603,0,0,0
-0.2852,-0.0886,0.9934,-12.2672,-1.4809,14.2366,0,0,0
-0.2822,-0.1001,1.0112,-15.1374,-0.7252,19.5114,0,0,0
-0.2659,-0.0828,0.9973,-20.7328,0.6031,24.2977,0,0,0
-0.2698,-0.0769,0.9641,-24.5191,1.9924,28.6641,0,0,0
-0.2878,-0.0676,0.9355,-25.8626,2.7634,33.1527,0,0,0
-0.2671,-0.0305,0.9458,-29.7634,1.9466,34.0229,0,0,0
-0.2576,-0.0205,0.9319,-32.2595,-3.5115,34.8321,0,0,0
-0.1968,0.0522,1.0164,-32.5496,-2.7786,30.2824,0,0,0
-0.2461,-0.0171,0.9512,-32.5802,-7.9389,26.4427,0,0,0
-0.2329,-0.0347,0.9766,-27.5114,-9.2901,23.2977,0,0,0
-0.2346,-0.0496,1.0205,-24.8397,-10.7099,22.3511,0,0,0
-0.2351,-0.0627,1.0374,-23.3893,-10.1527,20.8473,0,0,0
-0.2275,-0.075,1.0776,-17.542,-7.8397,20.1679,0,0,0
-0.2117,-0.0615,1.092,-9.855,-5.1603,20.5344,0,0,0
-0.2031,-0.0215,1.082,-3.855,-3.1298,17.2443,0,0,0
-0.2083,-0.0134,1.0427,-1.4656,-1.8855,12.6031,0,0,0
-0.2048,-0.0283,1.0229,-1.084,-1.8321,10.8015,0,0,0
-0.2224,-0.0386,1.0012,-4.2748,-1.0076,9.687,0,0,0
-0.2458,-0.0386,0.9993,-9.1221,0.2977,9.5038,0,0,0
-0.2476,-0.0623,0.979,-11.2366,0.6489,11.0534,0,0,0
-0.2639,-0.0693,0.9495,-9.8855,0.7786,12.6183,0,0,0
-0.2832,-0.082,0.917,-12.1374,-0.9618,14.4733,0,0,0
-0.2681,-0.0798,0.906,-16.9847,-4.1527,17.5267,0,0,0
-0.2573,-0.0769,0.9524,-18.9695,-5.9084,19.6489,0,0,0
-0.2539,-0.0796,0.9861,-16.916,-5.9237,20.6947,0,0,0
-0.24,-0.061,0.9846,-16.9847,-6.7328,19.8168,0,0,0
-0.2388,-0.0461,1.0034,-16.374,-7.4962,17.0458,0,0,0
-0.2212,-0.0471,1.051,-15.0305,-5.7023,13.0687,0,0,0
-0.2126,-0.0581,1.0798,-10.4122,-4.1832,10.7786,0,0,0
-0.1985,-0.0388,1.0781,-1.542,-3.3664,6.313,0,0,0
-0.1782,-0.0129,1.0745,6.3282,-2.7099,0.0916,0,0,0
-0.1748,0.0085,1.0012,12.0382,-3.1069,-4.9542,0,0,0
-0.1672,0.0085,1.0078,19.0763,-4.8931,-13.4427,0,0,0
-0.1636,0.0469,1.0164,23.8092,-6.2901,-18.374,0,0,0
-0.1724,0.0322,1.0061,26.7099,-6.7634,-23.6718,0,0,0
-0.1626,0.0481,1.0103,27.8244,-6.8321,-28.6031,0,0,0
-0.1631,0.0718,0.9985,28.1374,-6.8168,-35.771,0,0,0
-0.1741,0.0884,0.9946,29.8244,-8.5802,-44.771,0,0,0
-0.1772,0.0542,0.9929,34.6031,-12.1832,-54.0763,0,0,0
-0.1626,0.021,1.0261,39.2519,-15.7863,-60.6718,0,0,0
-0.1611,0.0027,1.0652,47.6489,-17.3359,-65.2519,0,0,0
-0.1641,-0.0198,1.1013,50.8626,-15.2214,-70.1145,0,0,0
-0.1726,-0.0498,1.1233,49.1221,-10.2214,-70.145,0,0,0
-0.2039,-0.0632,1.1187,46.0687,-2.916,-67.4962,0,0,0
-0.248,-0.0305,1.0854,39.9542,4.6107,-64.397,0,0,0
-0.2493,-0.074,1.0442,35.3359,10.7634,-58.3588,0,0,0
-0.2417,-0.0869,1.0132,31.0,13.7634,-50.0687,0,0,0
-0.2449,-0.0801,0.9761,24.3206,15.0153,-43.1298,0,0,0
-0.2571,-0.0581,0.9429,17.916,15.5802,-36.8015,0,0,0
-0.2744,-0.062,0.9226,9.2595,15.374,-31.7176,0,0,0
-0.2856,-0.0737,0.9128,0.2214,13.3282,-26.5725,0,0,0
-0.2935,-0.1033,0.9185,-8.145,11.2977,-20.2748,0,0,0
-0.3127,-0.1084,0.926,-11.6641,9.3817,-13.8473,0,0,0
-0.323,-0.1257,0.9382,-9.916,7.6183,-7.6336,0,0,0
-0.3162,-0.1284,0.9385,-7.0611,4.542,-1.5725,0,0,0
-0.2957,-0.1069,0.9587,-4.6107,1.1298,3.2137,0,0,0
-0.2893,-0.0784,0.9753,-1.6489,-1.7405,5.0229,0,0,0
-0.2598,-0.0605,0.9917,1.4656,-2.9389,5.0153,0,0,0
-0.2466,-0.0398,0.9968,2.2977,-3.9313,5.1756,0,0,0
-0.2322,-0.0125,0.9993,0.855,-4.626,5.0687,0,0,0
-0.2268,0.0178,0.9956,-2.4504,-4.229,4.4885,0,0,0
-0.2214,0.0291,0.9868,-6.5191,-3.6718,4.4046,0,0,0
-0.2161,0.0259,0.9751,-9.7786,-3.7023,4.9084,0,0,0
-0.2207,0.0322,0.9839,-12.8473,-3.9771,5.1527,0,0,0
-0.2166,0.0291,0.9822,-11.5954,-4.0687,4.2519,0,0,0
-0.2092,0.0344,0.9619,-9.0153,-6.1298,2.4809,0,0,0
-0.2217,0.0237,0.9409,-8.0076,-9.5802,0.5038,0,0,0
-0.2397,0.0134,0.9302,-7.6794,-12.9618,-0.9771,0,0,0
-0.2507,-0.0054,0.9255,-8.0611,-15.8855,-1.5344,0,0,0
-0.2446,-0.0059,0.9043,-8.145,-18.2672,-1.5344,0,0,0
-0.2478,0.0188,0.8738,-7.8397,-21.9542,-1.374,0,0,0
-0.249,0.042,0.8093,-11.2443,-28.687,-3.6718,0,0,0
-0.2234,-0.0359,0.8279,-18.6718,-37.2672,-2.7939,0,0,0
-0.2429,-0.0381,0.9138,-22.0763,-41.8931,-0.1756,0,0,0
-0.2424,-0.062,0.9839,-25.2672,-42.4656,2.0611,0,0,0
-0.22,-0.1006,1.0552,-25.4809,-41.5878,5.8092,0,0,0
-0.1938,-0.1038,1.1277,-22.5344,-38.6107,9.1985,0,0,0
-0.1709,-0.0945,1.1707,-17.6107,-33.6336,10.9084,0,0,0
-0.1321,-0.1096,1.2129,-13.3435,-28.1374,12.0916,0,0,0
-0.1208,-0.1021,1.3311,1.0916,-15.6031,11.2061,0,0,0
-0.0769,-0.1035,1.2346,43.542,1.1756,10.9542,0,0,0
-0.1045,0.033,1.0183,36.313,-8.9313,10.5496,0,0,0
-0.1206,0.1389,1.0737,17.2137,-9.9084,-0.7023,0,0,0
-0.0979,0.0486,1.022,7.0076,-5.8473,-7.8015,0,0,0
-0.0964,-0.0029,1.0256,2.0992,-2.6565,-5.3588,0,0,0
-0.1396,0.0244,1.0408,-3.0,1.3893,-2.9618,0,0,0
-0.157,0.0056,1.0312,-7.916,3.313,-1.7405,0,0,0
-0.1667,-0.0073,1.0269,-6.1908,2.6947,-2.0229,0,0,0
-0.1477,-0.0186,1.0356,-0.6412,2.9389,-3.7252,0,0,0
-0.1443,-0.0359,1.0437,0.1679,1.7557,-4.3359,0,0,0
-0.1519,-0.0469,1.0532,3.1374,1.6183,-3.313,0,0,0
-0.1672,-0.0371,1.0537,2.9389,2.5496,-1.6336,0,0,0
-0.1487,-0.0317,1.0691,3.2366,4.9542,-1.9771,0,0,0
-0.1577,-0.0366,1.0828,0.1756,6.8855,-1.4885,0,0,0
-0.1594,-0.0476,1.1167,0.1374,11.626,-1.6183,0,0,0
-0.1677,-0.0488,1.1343,-2.916,17.4656,0.2748,0,0,0
-0.1809,-0.0659,1.155,-6.771,24.2977,3.2061,0,0,0
-0.2021,-0.0664,1.1909,-10.3359,33.9084,5.9847,0,0,0
-0.1858,-0.083,1.1797,-15.9313,44.6107,10.7786,0,0,0
-0.1995,-0.0886,1.1091,-15.3206,51.8321,17.084,0,0,0
-0.2014,-0.0603,1.0071,-9.374,54.4122,22.0611,0,0,0
-0.1946,-0.0396,0.9236,-1.5573,49.916,24.7099,0,0,0
-0.1836,0.0618,0.8401,1.6336,41.4656,21.084,0,0,0
-0.2026,0.095,0.7866,4.0153,30.5954,13.5496,0,0,0
-0.2026,0.1064,0.7554,5.2672,17.9389,4.4504,0,0,0
-0.2139,0.0994,0.7615,3.145,5.2824,-3.6031,0,0,0
-0.2288,0.0564,0.8245,-0.7023,-3.9237,-9.4046,0,0,0
-0.2505,0.0093,0.8882,-0.3817,-7.4656,-10.2061,0,0,0
-0.2573,-0.0437,0.9368,3.1832,-9.4427,-7.7405,0,0,0
-0.2588,-0.0554,0.9758,4.9008,-10.8397,-3.9389,0,0,0
-0.2529,-0.0422,1.0166,6.3817,-12.1374,-2.4656,0,0,0
-0.2415,-0.0229,1.0381,7.9542,-12.8244,-3.4198,0,0,0
-0.2312,-0.0142,1.0571,13.0687,-12.4504,-5.3282,0,0,0
-0.2087,0.0039,1.0391,15.1908,-13.1756,-7.9084,0,0,0
-0.1963,0.0142,1.0271,14.458,-13.4275,-10.5725,0,0,0
-0.1904,0.0337,1.0208,15.9618,-12.3053,-11.8244,0,0,0
-0.1787,0.0601,1.01,15.687,-11.2366,-13.6718,0,0,0
-0.1797,0.0664,1.0117,12.7634,-9.9847,-17.5496,0,0,0
-0.1711,0.0544,1.0059,12.3282,-10.4427,-20.5191,0,0,0
-0.1611,0.0513,1.0591,13.1679,-10.8015,-23.9924,0,0,0
-0.1592,0.0588,1.0691,15.5038,-9.7328,-28.1832,0,0,0
-0.1511,0.0806,1.0728,21.8244,-8.4809,-34.0763,0,0,0
-0.1462,0.0671,1.0803,28.7328,-8.1069,-40.5191,0,0,0
-0.1528,0.0525,1.0955,30.8168,-6.6107,-45.8092,0,0,0
-0.166,0.0266,1.0752,33.7863,-4.8702,-47.5802,0,0,0
-0.1814,0.0037,1.0681,34.6031,-1.8168,-46.1221,0,0,0
-0.2146,0.0078,1.0452,28.2595,1.5191,-44.5038,0,0,0
-0.2336,-0.0027,1.0325,23.4351,5.6489,-39.2595,0,0,0
-0.2537,-0.0581,1.0325,16.3893,11.7252,-31.7481,0,0,0
-0.2708,-0.0471,0.9827,8.5725,15.9771,-22.5267,0,0,0
-0.2712,-0.0205,0.9297,5.0534,15.8626,-14.0763,0,0,0
-0.2678,0.0139,0.8992,-0.1985,12.4427,-10.6947,0,0,0
-0.2695,0.0107,0.8948,-2.5725,8.229,-8.6641,0,0,0
-0.2656,-0.0303,0.9214,-6.3053,3.5344,-7.0611,0,0,0
-0.269,-0.0439,0.9729,-5.9771,0.771,-2.1603,0,0,0
-0.2664,-0.0439,1.0022,-4.0992,1.1756,1.4962,0,0,0
-0.2405,-0.0303,0.9988,-1.9618,0.3282,4.2748,0,0,0
-0.2214,0.0115,0.9971,-0.8855,-1.5038,4.2977,0,0,0
-0.2263,0.0171,1.0103,2.0916,-1.855,4.4809,0,0,0
-0.2153,0.0369,1.0081,5.1069,-1.145,4.2672,0,0,0
-0.2112,0.0554,0.9856,6.4046,-2.5725,3.2366,0,0,0
-0.2112,0.061,1.0005,5.458,-3.2977,2.0611,0,0,0
-0.2056,0.0627,1.0149,3.3664,-3.0305,1.8855,0,0,0
-0.2034,0.0654,1.0044,3.4885,-1.4809,1.7939,0,0,0
-0.2087,0.0786,0.9958,1.8779,-1.0763,1.3435,0,0,0
-0.2087,0.0662,1.0029,-1.8626,-1.5649,0.8092,0,0,0
-0.2053,0.0693,1.0054,-4.8321,-1.145,-0.2824,0,0,0
-0.2168,0.064,1.0046,-5.8855,-0.313,-0.7328,0,0,0
-0.2217,0.0432,1.0022,-8.8168,-0.7481,-0.0763,0,0,0
-0.2358,0.0305,0.9951,-10.4427,-1.0916,0.8626,0,0,0
-0.2375,0.021,0.9888,-11.6718,-1.1679,2.6718,0,0,0
-0.2456,0.0112,0.9827,-13.2748,-1.1832,5.1603,0,0,0
-0.2493,-0.0134,0.9854,-12.2443,-0.6641,7.8855,0,0,0
-0.2434,-0.0146,0.978,-13.9695,-1.5115,10.9847,0,0,0
-0.2354,-0.0286,0.9751,-18.855,-2.8702,14.1832,0,0,0
-0.2358,-0.0449,0.9783,-21.9237,-2.7328,17.916,0,0,0
-0.2437,-0.042,0.9849,-24.5649,-1.771,22.9466,0,0,0
-0.2502,-0.0425,0.9819,-23.9847,-1.6641,27.2824,0,0,0
-0.2432,-0.0237,0.9702,-22.4809,-2.8702,31.0611,0,0,0
-0.2456,-0.0129,0.9939,-19.8473,-2.6107,33.313,0,0,0
-0.2241,-0.0005,0.998,-20.2748,-4.0916,34.6031,0,0,0
-0.209,0.0154,1.0181,-22.6718,-4.4885,34.4427,0,0,0
-0.1924,0.0471,1.0276,-21.5496,-4.5649,32.0076,0,0,0
-0.1741,0.0635,1.02,-18.7863,-4.8015,27.9847,0,0,0
-0.1455,0.063,1.0261,-15.2061,-5.916,24.0916,0,0,0
-0.1353,0.0732,1.0513,-10.1298,-6.5038,19.7252,0,0,0
-0.1409,0.1064,1.0864,-5.687,-4.771,13.0153,0,0,0
-0.1436,0.0911,1.0645,-0.6794,-3.1145,5.9771,0,0,0
-0.1492,0.0781,1.05,1.4733,-3.7023,0.9466,0,0,0
-0.1602,0.0654,1.0557,1.916,-3.1756,-2.1908,0,0,0
-0.1694,0.0593,1.063,0.6794,-0.2366,-4.2748,0,0,0
-0.1804,0.0391,1.0366,-2.0992,3.2977,-4.7328,0,0,0
-0.1914,0.0278,1.0161,-5.687,5.1374,-4.3282,0,0,0
-0.1941,0.011,1.0005,-8.5725,5.8321,-3.4504,0,0,0
-0.2212,0.0034,1.0012,-10.0382,5.687,-2.8168,0,0,0
-0.2302,-0.0098,0.978,-6.5802,5.626,-2.8397,0,0,0
-0.2305,-0.0159,0.9612,-2.4733,3.1069,-1.771,0,0,0
-0.2366,-0.0112,0.9668,-3.542,-0.542,-1.6107,0,0,0
-0.239,-0.0203,0.9792,-1.5191,-1.8397,-1.6336,0,0,0
-0.2234,-0.0295,0.9783,3.5115,-2.3435,-0.8092,0,0,0
-0.2207,-0.0068,0.9871,3.6107,-4.9313,-0.3359,0,0,0
-0.2146,-0.0012,1.0015,0.7481,-6.1756,-1.3053,0,0,0
-0.2207,-0.0269,1.0254,-0.4733,-5.3969,-0.8779,0,0,0
-0.217,-0.0293,1.04,0.1145,-3.5878,1.6336,0,0,0
-0.2102,-0.0005,1.0312,-0.3664,-1.6183,3.1603,0,0,0
-0.2007,0.0288,1.0085,-3.229,-1.0,2.687,0,0,0
-0.1909,0.0464,0.9937,-7.1679,-1.3359,0.8626,0,0,0
-0.1824,0.0408,0.9849,-9.5878,-2.4809,-0.5191,0,0,0
-0.1934,0.0242,1.0037,-10.0916,-3.1145,-1.4733,0,0,0
-0.1973,0.0,1.0266,-6.0611,-1.8473,-1.5344,0,0,0
-0.2007,-0.0046,1.0149,-3.8321,-1.5878,-1.6947,0,0,0
-0.2092,-0.0085,1.0215,-2.0,-1.2901,-1.855,0,0,0
-0.2063,-0.019,1.0117,0.3969,-1.458,-1.0382,0,0,0
-0.2024,-0.0127,1.0012,0.8473,-2.8092,-0.3053,0,0,0
-0.2053,0.001,1.0088,1.9542,-2.0611,-0.0687,0,0,0
-0.2034,0.0083,1.0032,0.2748,-1.771,0.0763,0,0,0
-0.2034,-0.0063,0.9983,-2.9008,-2.6031,-0.1679,0,0,0
-0.2,0.0037,1.001,-3.7405,-3.0229,0.8015,0,0,0
-0.1975,0.0178,1.0012,-4.313,-2.3282,-0.0382,0,0,0
-0.2004,0.0183,0.9966,-5.6794,-3.1908,-1.1298,0,0,0
-0.2229,0.0222,0.9968,-6.1069,-4.1985,-2.2901,0,0,0
-0.2168,0.0029,1.0234,-4.1985,-4.4656,-1.855,0,0,0
-0.2007,-0.0181,1.0371,-0.5267,-2.9466,0.0153,0,0,0
-0.1921,-0.0103,1.0476,0.0763,-1.2137,1.7481,0,0,0
-0.1794,0.0076,1.0425,0.0916,0.0,2.313,0,0,0
-0.1731,0.0339,1.0383,-0.2366,2.2748,1.2748,0,0,0
-0.1724,0.0305,1.0125,0.3664,3.6412,-0.3588,0,0,0
-0.1719,0.0371,0.9817,0.1756,2.6031,-2.0458,0,0,0
-0.1777,0.0352,0.9985,-3.0153,1.0458,-3.771,0,0,0
-0.1875,0.0156,0.999,-6.3511,0.4427,-4.8397,0,0,0
-0.1917,-0.0044,1.0098,-8.3282,1.1679,-3.9084,0,0,0
-0.2012,-0.0146,1.0132,-9.6489,2.0687,-3.0,0,0,0
-0.208,-0.0156,1.0278,-10.5802,2.2901,-2.4122,0,0,0
-0.217,-0.0215,1.0129,-9.2824,2.0534,-2.3511,0,0,0
-0.2202,-0.0378,1.0156,-3.3206,1.8321,-1.3511,0,0,0
-0.2178,-0.0322,1.0137,-0.7481,1.0382,-0.6718,0,0,0
-0.2136,-0.0298,1.0156,-0.7252,1.3664,-0.3969,0,0,0
-0.2107,-0.0198,1.0015,-1.0611,1.313,-0.0687,0,0,0
-0.2087,-0.0042,0.9897,-1.7176,0.6947,0.3053,0,0,0
-0.2134,0.0027,0.9929,-3.5344,-0.0153,-0.3511,0,0,0
-0.2131,-0.0066,0.998,-5.5115,-0.2672,-0.6031,0,0,0
-0.22,-0.0142,0.9941,-5.1603,-1.4351,0.1145,0,0,0
-0.2209,-0.0088,1.0046,-3.3893,-1.6489,0.2672,0,0,0
-0.218,-0.0137,1.0134,-2.8702,-2.1145,0.2748,0,0,0
-0.2097,-0.021,1.0195,-2.4427,-1.8015,0.6947,0,0,0
-0.2092,-0.0078,1.0237,-0.4504,-0.6565,1.9084,0,0,0
-0.1982,0.0088,1.0081,0.3969,-0.2061,1.4504,0,0,0
-0.1982,0.0029,1.0044,0.8015,-0.3206,0.7786,0,0,0
-0.2063,-0.002,0.9939,3.5267,-0.6565,0.7481,0,0,0
-0.2104,0.0051,0.9893,2.6718,-1.9847,0.3435,0,0,0
-0.2114,0.0005,0.9958,0.7328,-3.0076,0.313,0,0,0
-0.2129,-0.0063,1.0073,-1.3206,-3.2901,0.3435,0,0,0
-0.2112,-0.0132,1.0247,-4.7023,-2.9618,1.2748,0,0,0
-0.2046,-0.0168,1.043,-4.9924,-1.0992,2.3588,0,0,0
-0.207,-0.0034,1.0261,-2.8473,0.626,3.0305,0,0,0
-0.1948,0.012,1.0015,-2.0534,0.5191,2.2901,0,0,0
-0.1895,0.0144,0.9976,-1.4275,-0.6718,1.4122,0,0,0
-0.1907,0.0122,0.9988,1.7099,-1.2519,0.5344,0,0,0
-0.1914,0.0059,1.0051,2.6489,-1.5878,-0.313,0,0,0
-0.1943,0.0029,1.0081,1.3053,-2.4122,-0.8015,0,0,0
-0.1851,0.0002,1.0215,-0.3893,-1.8473,-0.771,0,0,0
-0.1941,0.0042,1.032,-3.1603,-0.6336,-1.0611,0,0,0
-0.1968,-0.0005,1.0247,-5.6794,0.7099,-0.5344,0,0,0
-0.1953,-0.001,1.0176,-7.8702,1.6183,-0.3817,0,0,0
-0.1973,-0.0022,1.0181,-7.8168,2.0,-0.2977,0,0,0
-0.1973,-0.0073,0.9966,-4.8931,1.9618,-0.2214,0,0,0
-0.1995,0.0022,0.9963,-2.4122,0.7481,-0.6718,0,0,0
-0.1973,0.0005,0.9944,1.2901,0.0458,-1.3359,0,0,0
-0.1987,0.0068,1.0,2.0153,-0.7023,-2.4275,0,0,0
-0.2031,0.0007,0.999,-0.1756,-1.5496,-3.2748,0,0,0
-0.2148,-0.012,1.0105,-1.1145,-0.9466,-2.7939,0,0,0
-0.2163,-0.0295,1.0154,-0.3053,0.687,-1.4809,0,0,0
-0.2187,-0.0198,1.0103,-2.1985,0.4427,0.3817,0,0,0
-0.2153,-0.0122,1.0076,-4.2672,0.0076,1.1069,0,0,0
-0.2012,0.0022,1.0117,-3.458,0.9237,0.9389,0,0,0
-0.1953,0.0105,1.0017,-2.7481,0.5191,0.4504,0,0,0
-0.1917,0.0269,1.0017,-3.9771,-0.626,-1.3282,0,0,0
-0.2,0.0168,1.0078,-4.6947,-0.458,-2.8244,0,0,0
-0.2046,-0.0159,1.0144,-1.3588,0.4504,-2.9237,0,0,0
-0.2029,-0.0232,1.0193,0.1985,0.5954,-1.3664,0,0,0
-0.2046,-0.009,1.0137,-1.9924,0.1298,-0.8168,0,0,0
-0.2043,-0.0073,1.0093,-3.2977,0.7176,-1.2824,0,0,0
-0.2048,-0.0112,1.01,-3.8321,1.1145,-1.0687,0,0,0
-0.1982,-0.0125,1.0105,-4.6183,1.084,-0.0305,0,0,0
-0.1985,-0.0081,1.0076,-3.2137,1.0992,-0.5573,0,0,0
-0.197,0.001,1.0063,-2.5344,1.0,-1.0305,0,0,0
-0.1941,-0.011,1.0071,-3.5191,-0.3359,-1.1374,0,0,0
-0.1956,-0.0056,1.0122,-3.1298,-0.2748,-1.4733,0,0,0
-0.1929,-0.0063,1.0149,-2.6412,0.8244,-1.5878,0,0,0
-0.2026,-0.0103,1.0083,-2.3969,0.8779,-1.6641,0,0,0
-0.2029,-0.009,1.0005,-0.9847,0.4275,-1.4962,0,0,0
-0.2056,-0.0063,1.011,-1.4046,-0.6336,-1.7557,0,0,0
-0.2144,-0.0059,1.0176,-0.5954,-0.2519,-1.8015,0,0,0
-0.2129,-0.0103,1.0161,1.0763,0.4885,-1.2824,0,0,0
-0.2104,-0.0015,1.0115,0.0229,0.7405,-0.9618,0,0,0
-0.2061,0.0056,1.0115,-0.2748,1.0611,-0.9084,0,0,0
-0.2087,0.0044,1.0164,0.4733,2.0992,-1.2519,0,0,0
-0.21,0.0034,1.0024,-0.542,1.3206,-1.6641,0,0,0
-0.2163,-0.002,1.0032,-2.3435,0.9618,-1.8626,0,0,0
-0.2185,-0.0088,1.0046,-2.6641,0.6107,-1.9389,0,0,0
-0.2202,-0.0054,0.99,-3.4275,0.3435,-1.9084,0,0,0
-0.2224,-0.0059,1.0061,-5.1832,-0.0076,-1.2366,0,0,0
-0.2217,-0.0115,1.0037,-4.9008,0.5038,-1.0229,0,0,0
-0.2163,-0.01,1.0032,-4.5954,0.313,-0.4733,0,0,0
-0.2148,-0.0054,0.999,-3.7939,-0.0382,-1.084,0,0,0
-0.2151,-0.0154,1.0032,-3.2366,-0.5878,-1.4046,0,0,0
-0.2043,-0.019,1.0139,-2.7252,-0.771,-1.5115,0,0,0
-0.2073,-0.019,1.0168,-0.9084,0.0305,-1.5725,0,0,0
-0.2048,-0.0215,1.0002,0.6183,0.2595,-1.3511,0,0,0
-0.1978,-0.0095,0.9941,-1.3053,-0.9542,-1.542,0,0,0
-0.2065,-0.0066,1.001,-2.5344,-1.229,-1.5496,0,0,0
-0.1985,-0.0066,1.0049,-3.6947,-0.8931,-1.6412,0,0,0
-0.1963,-0.0178,1.0208,-5.542,-0.5954,-0.8779,0,0,0
-0.2014,-0.0217,1.0244,-5.2519,0.3053,0.0,0,0,0
-0.198,-0.01,1.021,-4.8779,0.8244,-0.2061,0,0,0
-0.2036,-0.0063,1.0212,-5.1603,0.9084,-0.5573,0,0,0
-0.2061,-0.0034,1.01,-2.1908,1.1298,-1.3435,0,0,0
-0.2058,-0.0059,1.0027,1.5115,0.7557,-1.3435,0,0,0
-0.2051,0.0012,0.9912,1.0,-0.7481,-1.8015,0,0,0
-0.2156,-0.0015,0.999,-0.4504,-1.3282,-2.6794,0,0,0
-0.2214,-0.0146,1.0112,-0.9008,-1.0229,-2.8397,0,0,0
-0.2212,-0.03,1.0073,-1.8092,-0.6336,-1.3359,0,0,0
-0.2207,-0.0254,1.0085,-2.9389,-0.5496,0.1527,0,0,0
-0.2156,-0.0132,1.0105,-2.7023,0.5038,1.0,0,0,0
-0.2087,-0.0083,1.0044,-1.4046,-0.0534,0.8626,0,0,0
-0.2075,0.0059,1.0005,-1.7481,-0.9313,-0.5573,0,0,0
-0.2053,0.01,1.012,-2.2748,-1.0458,-2.5191,0,0,0
-0.2097,0.001,1.0137,-1.0,-0.687,-3.4809,0,0,0
-0.2139,-0.0039,1.0015,-0.374,-0.3206,-3.374,0,0,0
-0.2178,-0.0081,1.0061,-0.5344,-0.2061,-3.1985,0,0,0
-0.2217,-0.0103,1.0125,-1.0458,-0.3053,-2.6336,0,0,0
-0.2146,-0.0078,1.0093,-1.1145,0.1756,-2.4733,0,0,0
-0.2109,-0.0051,1.0061,-0.916,0.2748,-2.4046,0,0,0
-0.2056,0.0063,0.9958,-0.8473,-0.0534,-3.0305,0,0,0
-0.2075,0.0071,1.0002,-0.7023,-1.0534,-4.0458,0,0,0
-0.2017,-0.0098,1.0107,0.1221,-1.374,-4.3893,0,0,0
-0.197,-0.0081,1.0208,-0.5802,-0.8626,-4.2901,0,0,0
-0.1982,-0.0208,1.0115,-3.2137,-0.2137,-3.771,0,0,0
-0.2029,-0.0232,1.0178,-4.8702,0.8092,-3.0916,0,0,0
-0.2017,-0.0273,1.0186,-5.3893,1.1985,-2.6412,0,0,0
-0.2068,-0.0256,1.0159,-5.1527,1.7099,-2.0992,0,0,0
-0.2051,-0.0239,1.011,-3.2366,1.3817,-1.8779,0,0,0
-0.208,-0.0212,0.9995,-2.1985,0.4046,-2.5344,0,0,0
-0.2126,-0.0251,0.9941,-0.6489,-0.6489,-2.626,0,0,0
-0.2148,-0.0322,0.9985,0.0382,-1.7557,-2.145,0,0,0
-0.22,-0.0293,1.0059,0.6183,-1.8702,-1.1985,0,0,0
-0.2175,-0.0229,1.0037,-0.1145,-1.2901,-0.3893,0,0,0
-0.2219,-0.0171,1.0129,-2.4504,-1.1221,0.542,0,0,0
-0.2261,-0.0195,1.0115,-1.3893,-0.9389,1.0,0,0,0
-0.2173,-0.0149,1.0098,0.8244,-0.7786,1.4427,0,0,0
-0.2092,0.0066,0.9963,0.626,-1.6183,1.0916,0,0,0
-0.2007,0.0095,1.0093,-1.2901,-2.0076,0.3053,0,0,0
-0.1987,-0.0005,1.0276,-1.3359,-0.7099,-0.4427,0,0,0
-0.1995,-0.0027,1.0173,-1.2519,0.1832,-0.2061,0,0,0
-0.1968,-0.0024,1.0095,-2.855,0.0763,-0.5267,0,0,0
-0.197,-0.0078,1.0178,-4.1298,0.4046,-1.374,0,0,0
-0.2017,-0.012,1.0139,-2.2672,1.5725,-1.4656,0,0,0
-0.1953,-0.0122,0.9968,-1.9313,1.2061,-1.3893,0,0,0
-0.1992,-0.0093,0.9917,-3.4275,0.1756,-2.1069,0,0,0
-0.2031,-0.0127,0.9985,-3.9008,-0.0992,-2.5191,0,0,0
-0.2122,-0.0256,1.0117,-3.1221,0.5344,-2.3053,0,0,0
-0.2144,-0.0391,1.0063,-2.7176,0.626,-1.1527,0,0,0
-0.2192,-0.032,1.0105,-3.0687,0.5267,0.2443,0,0,0
-0.2241,-0.0315,1.0054,-2.9389,0.6412,0.4427,0,0,0
-0.2258,-0.0332,1.0046,-1.7099,0.1832,0.7252,0,0,0
-0.2241,-0.0242,0.9966,-0.3206,-0.2977,1.1527,0,0,0
-0.2227,-0.0173,0.9946,-0.7405,-1.2137,0.8702,0,0,0
-0.2236,-0.0105,0.9878,-0.7328,-2.1603,0.771,0,0,0
-0.2178,-0.0061,1.0024,-0.7252,-2.1374,0.6794,0,0,0
-0.2129,-0.0076,1.009,-1.1603,-1.4198,1.2748,0,0,0
-0.2078,0.0054,0.999,-1.4504,-1.3206,1.2443,0,0,0
-0.2068,0.012,1.0073,-1.8779,-1.5573,0.6794,0,0,0
-0.209,0.0022,1.0125,-0.6031,-1.8321,-0.0763,0,0,0
-0.2065,-0.0027,1.0217,0.7786,-1.7328,-0.7328,0,0,0
-0.2065,-0.0005,1.0112,1.3435,-1.4733,-1.2595,0,0,0
-0.2034,0.0037,1.0149,0.4809,-1.0382,-2.0,0,0,0
-0.2063,0.0083,1.0129,-1.6718,-0.9008,-2.7405,0,0,0
-0.2087,-0.0176,1.0134,-2.6412,-0.374,-2.2748,0,0,0
-0.2061,-0.0173,1.0063,-2.8702,0.1908,-1.4351,0,0,0
-0.2114,-0.0161,0.9978,-3.374,0.1908,-1.2901,0,0,0
-0.2168,-0.009,0.9827,-4.4122,-0.7863,-1.6336,0,0,0
-0.2141,-0.0166,0.9854,-5.0992,-1.8702,-2.2366,0,0,0
-0.2214,-0.0286,1.0027,-3.7328,-2.3359,-1.6412,0,0,0
-0.2224,-0.0327,1.0127,-1.9695,-2.1756,-1.0,0,0,0
-0.2166,-0.032,1.011,-1.5191,-2.4046,-0.1756,0,0,0
-0.2227,-0.0205,1.0181,-0.8168,-2.2595,-0.1985,0,0,0
-0.2151,-0.0195,1.0051,1.7939,-1.8168,0.1221,0,0,0
-0.2102,-0.0107,1.0054,1.4885,-2.2137,0.3282,0,0,0
-0.2048,-0.0015,1.0015,0.2519,-2.6336,0.1527,0,0,0
-0.1987,0.0073,1.0017,-1.1298,-2.2519,-0.9084,0,0,0
-0.1958,0.0024,0.9954,-2.7863,-2.6107,-0.8779,0,0,0
-0.2012,-0.0049,1.0078,-3.4656,-2.4351,-0.6031,0,0,0
-0.1997,0.002,1.0117,-3.1679,-2.0611,-0.9771,0,0,0
-0.1931,-0.0017,1.0095,-2.4504,-2.1756,-0.8168,0,0,0
-0.1899,-0.0042,1.0298,-2.7481,-2.1603,-1.626,0,0,0
-0.1958,-0.0059,1.0347,-1.9847,-1.4275,-1.9542,0,0,0
-0.1926,-0.0154,1.0347,-0.7863,0.1756,-2.2443,0,0,0
-0.1975,-0.0161,1.0256,-1.6107,0.4198,-2.313,0,0,0
-0.2029,-0.019,1.0269,-0.687,1.6412,-2.4122,0,0,0
-0.2075,-0.0203,1.0061,1.6565,1.9771,-2.1069,0,0,0
-0.2119,-0.0017,0.988,1.2595,0.9542,-1.2824,0,0,0
-0.2092,0.0054,0.9922,-0.4885,0.1145,-1.7481,0,0,0
-0.2109,0.012,1.0002,-1.7786,0.2443,-2.2519,0,0,0
-0.2058,0.001,1.0049,-3.5496,0.313,-2.2672,0,0,0
-0.2058,0.0022,1.0078,-5.3282,0.3664,-2.3282,0,0,0
-0.207,-0.0105,1.02,-6.4885,1.3359,-2.8321,0,0,0
-0.207,-0.0247,1.0166,-4.3893,2.1527,-2.6412,0,0,0
-0.2039,-0.0237,0.9919,-3.1756,1.8931,-1.8855,0,0,0
-0.2095,-0.0203,0.9922,-3.7176,0.313,-2.4885,0,0,0
-0.2134,-0.0317,1.0027,-3.3359,-0.3053,-2.542,0,0,0
-0.2185,-0.0479,1.0059,-2.2901,-1.4046,-1.9924,0,0,0
-0.2168,-0.0479,1.0156,-1.5267,-1.3893,-0.8397,0,0,0
-0.2124,-0.0396,1.0122,0.7481,-0.8702,0.8168,0,0,0
-0.2097,-0.0313,1.0139,1.6183,-0.4656,1.1832,0,0,0
-0.208,-0.02,0.9966,0.3893,-1.2137,0.9389,0,0,0
-0.2029,-0.0085,0.9946,0.5496,-1.2595,1.1756,0,0,0
-0.2,-0.0032,1.0005,0.9924,-1.0229,0.6031,0,0,0
-0.2058,0.002,0.9988,-0.7023,-1.8397,-0.0534,0,0,0
-0.2126,-0.0034,0.9961,-1.5725,-2.3588,-0.9924,0,0,0
-0.2144,-0.0088,1.0071,-0.9466,-1.7557,-0.8244,0,0,0
-0.2134,-0.0107,1.019,-1.687,-1.9237,-0.374,0,0,0
-0.2146,-0.0056,1.0225,-2.3053,-1.0229,0.0916,0,0,0
-0.207,-0.0056,1.0154,-3.0916,-0.7099,0.2137,0,0,0
-0.2073,-0.0017,1.0078,-3.9466,-0.4504,-0.1145,0,0,0
-0.2124,-0.0034,1.0132,-4.2061,-0.6412,-0.7099,0,0,0
-0.2136,-0.0098,1.0159,-2.4427,-0.6031,-0.9695,0,0,0
-0.2058,-0.012,1.0034,-0.2519,-0.8855,-1.3664,0,0,0
-0.1978,-0.0085,1.0022,-1.9466,-1.0687,-1.6641,0,0,0
-0.2002,-0.0208,1.0154,-1.1985,0.1756,-1.2061,0,0,0
-0.2036,-0.0159,0.9946,-1.3893,0.6183,-0.8092,0,0,0
-0.2029,-0.019,0.9976,-2.6565,-0.0458,-0.7786,0,0,0
-0.2131,-0.0244,0.9893,-2.771,-0.8779,-1.1069,0,0,0
-0.2097,-0.0247,0.9932,-2.3817,-2.2977,-0.8779,0,0,0
-0.2178,-0.0256,1.0183,-2.7786,-2.3664,-0.5344,0,0,0
-0.2148,-0.0339,1.0154,-1.6336,-1.7328,0.4122,0,0,0
-0.2063,-0.0244,1.0115,-1.1756,-1.4351,1.4046,0,0,0
-0.2,0.0017,1.0159,-1.6183,-1.1145,0.458,0,0,0
-0.1978,-0.0032,1.0063,-1.2901,-0.1069,-0.1145,0,0,0
-0.1948,-0.0093,0.9839,-0.5649,-1.0763,-0.4962,0,0,0
-0.2024,-0.0029,0.9858,-0.5802,-1.6718,-0.7634,0,0,0
-0.2102,-0.0095,0.9883,-1.0611,-2.6947,-1.1908,0,0,0
-0.2104,-0.0134,1.0049,-1.0687,-2.7557,-0.626,0,0,0
-0.2095,-0.0081,1.0212,-2.6107,-3.1832,-0.0611,0,0,0
-0.2063,-0.0107,1.0508,-3.6336,-1.0611,-0.0229,0,0,0
-0.2017,-0.0149,1.0393,-2.7176,-0.6412,1.3282,0,0,0
-0.2,-0.0076,1.0476,-3.1679,0.2595,0.4198,0,0,0
-0.1931,-0.0134,1.0291,-2.1298,1.313,-0.145,0,0,0
-0.1899,-0.0093,1.0095,-0.1298,1.0534,-0.8702,0,0,0
-0.1936,-0.0005,0.9929,-0.0458,0.2595,-1.7634,0,0,0
-0.2024,-0.0017,0.9832,-1.5191,-0.9847,-2.8473,0,0,0
-0.2031,-0.019,0.9883,-4.0305,-2.2595,-2.3206,0,0,0
-0.207,-0.0413,0.9944,-3.0,-1.8168,-1.0458,0,0,0
-0.2,-0.0422,1.0083,-1.8779,-1.8244,0.5802,0,0,0
