ax,ay,az,gx,gy,gz,left_click,right_click
0.1653,0.1345,1.0405,-4.2977,-60.1069,24.8931,0,0,0
0.219,0.262,1.0627,-2.0382,-58.0992,24.229,0,0,0
0.1455,0.2346,1.0127,-2.5725,-54.4733,20.8168,0,0,0
0.1235,0.1868,0.9956,-3.3969,-48.7023,16.9237,0,0,0
0.1316,0.1414,1.0156,-5.2977,-49.687,15.1832,0,0,0
0.1519,0.2107,1.0059,-9.542,-49.1985,15.5573,0,0,0
0.1682,0.1787,1.0042,-10.9618,-55.7023,17.8015,0,0,0
0.1443,0.1379,0.9875,-10.9924,-59.4809,18.1145,0,0,0
0.1819,0.2102,0.9988,-8.6031,-66.3053,17.1603,0,0,0
0.1946,0.2371,0.9795,-8.3588,-68.4504,11.9847,0,0,0
0.1975,0.2158,0.9565,-6.5191,-71.7863,4.771,0,0,0
0.2224,0.3027,0.9282,-6.0,-77.7328,-1.0611,0,0,0
0.156,0.2214,0.906,-1.4046,-90.6794,-5.2824,0,0,0
0.2527,0.2595,0.9573,3.9466,-98.4504,-9.145,0,0,0
0.283,0.2131,0.9441,12.5725,-101.0076,-13.9618,0,0,0
0.3088,0.1692,0.9817,23.5573,-106.9695,-14.9313,0,0,0
0.3779,0.1782,1.0273,26.0153,-101.6641,-14.8321,0,0,0
0.5168,0.2058,1.1191,25.1221,-90.7328,-4.8855,0,0,0
0.4585,0.1382,1.1321,20.0763,-70.9008,4.1069,0,0,0
0.4976,0.2114,1.1494,10.0534,-49.0229,7.6489,0,0,0
0.4949,0.2192,1.1433,-1.3817,-28.3053,6.1298,0,0,0
0.48,0.1956,1.1304,-10.4504,-9.9847,4.626,0,0,0
0.4758,0.1787,1.1282,-15.7557,6.4427,2.6107,0,0,0
0.4417,0.1755,1.0857,-16.3817,19.7328,-0.7405,0,0,0
0.3977,0.1306,1.0706,-13.1603,26.6718,-2.9542,0,0,0
0.3701,0.1272,1.054,-7.5267,31.3206,-3.5038,0,0,0
0.3552,0.1145,1.0342,-1.145,34.6336,-3.0229,0,0,0
0.334,0.1221,1.0088,1.458,36.1221,-1.145,0,0,0
0.311,0.1252,0.9841,0.6565,36.5878,-0.5115,0,0,0
0.2976,0.1304,0.9766,-3.9542,36.8168,0.542,0,0,0
0.2942,0.1172,0.97,-8.5573,36.4809,2.2519,0,0,0
0.2827,0.1025,0.9773,-11.8321,34.8626,4.3053,0,0,0
0.2781,0.1013,0.9768,-13.5649,34.4275,5.2595,0,0,0
0.2834,0.0886,0.991,-13.5725,34.542,5.9847,0,0,0
0.29,0.1074,1.0039,-11.4427,37.4809,7.6183,0,0,0
0.2751,0.1067,1.0032,-9.3206,40.5496,7.4733,0,0,0
0.2634,0.1106,0.9946,-7.7939,41.0458,7.6107,0,0,0
0.251,0.0806,0.9963,-6.229,40.5267,6.7481,0,0,0
0.2576,0.064,1.0129,-3.9695,41.1756,7.916,0,0,0
0.2603,0.1135,1.019,-2.8092,44.1221,8.3435,0,0,0
0.2561,0.1223,1.0073,-2.9466,46.4733,7.3969,0,0,0
0.2458,0.1514,1.0051,-5.229,48.5115,5.542,0,0,0
0.2131,0.1157,0.9766,-6.6794,45.4504,5.3817,0,0,0
0.1841,0.0884,0.9734,-7.5115,42.0916,7.4351,0,0,0
0.1829,0.1069,0.9597,-7.4656,37.1527,9.8015,0,0,0
0.1682,0.1245,0.9448,-7.3359,31.0153,11.6412,0,0,0
0.1528,0.1274,0.9414,-7.4275,23.3893,12.2595,0,0,0
0.1501,0.1426,0.9424,-7.5802,16.4733,10.5802,0,0,0
0.1533,0.1362,0.9353,-7.1908,9.5038,9.8397,0,0,0
0.1614,0.1069,0.9446,-5.4504,3.9084,10.5954,0,0,0
0.2,0.0742,0.9817,-0.8321,1.313,12.5115,0,0,0
0.2168,0.1047,1.0137,2.9237,2.9542,14.7176,0,0,0
0.2244,0.1409,1.0049,1.3893,5.8092,16.6336,0,0,0
0.2156,0.1614,1.0056,-3.1603,7.626,16.3435,0,0,0
0.2095,0.1462,1.0017,-7.9847,8.2977,16.4351,0,0,0
0.2192,0.1079,1.0166,-10.542,9.8473,19.4122,0,0,0
0.2136,0.0862,1.0151,-8.3817,11.5267,24.9542,0,0,0
0.2148,0.1082,1.0198,-7.8397,12.1832,29.313,0,0,0
0.2129,0.1431,1.0239,-8.9466,14.2519,29.6489,0,0,0
0.2146,0.1499,1.0283,-12.7328,16.374,29.3969,0,0,0
0.2053,0.1484,1.0234,-15.9313,18.6565,27.9695,0,0,0
0.2266,0.2185,0.9998,-16.9313,22.1985,27.0534,0,0,0
0.2112,0.1033,1.0366,-15.374,21.0076,28.0382,0,0,0
0.2009,0.1204,1.0242,-13.4962,22.9237,28.084,0,0,0
0.1926,0.1362,1.0234,-14.6107,24.4198,27.1527,0,0,0
0.1665,0.1304,1.0166,-13.6031,24.2977,24.1298,0,0,0
0.1665,0.1233,1.0251,-14.9542,23.6336,21.0992,0,0,0
0.1479,0.1106,1.0068,-15.7252,22.0076,19.1832,0,0,0
0.1172,0.0979,0.9729,-17.6183,18.5344,20.0763,0,0,0
0.1411,0.0757,1.0088,-18.9771,17.0382,21.1756,0,0,0
0.1318,0.0923,0.998,-20.4198,14.2061,19.5954,0,0,0
0.1292,0.0908,0.9885,-22.8473,11.5954,17.0763,0,0,0
0.1089,0.0881,0.9702,-26.9847,7.2672,16.0916,0,0,0
0.1104,0.0439,0.9727,-28.916,2.4046,15.9847,0,0,0
0.115,0.0227,0.9722,-25.4275,-1.3053,16.1603,0,0,0
0.0979,-0.0439,0.9487,-22.7634,-6.1832,16.458,0,0,0
0.1101,0.0339,0.9746,-15.5649,-8.5878,16.5344,0,0,0
0.1282,0.0552,0.9854,-15.3206,-10.2824,14.5725,0,0,0
0.146,0.0586,1.0095,-16.5344,-9.5725,12.0,0,0,0
0.1514,0.0146,1.0259,-15.687,-7.0687,9.7328,0,0,0
0.158,0.0103,1.033,-12.0534,-4.7328,10.2824,0,0,0
0.1462,0.0293,1.0261,-10.4427,-3.2595,11.4198,0,0,0
0.1458,0.0432,1.0249,-11.2519,-3.771,10.9618,0,0,0
0.1516,0.0491,1.0393,-13.1603,-2.9313,10.0382,0,0,0
0.1487,0.0334,1.0342,-14.7939,-2.313,9.0992,0,0,0
0.1562,-0.0022,1.0303,-14.8473,-2.8015,9.2366,0,0,0
0.1492,-0.0208,1.0286,-11.1679,-3.1603,9.5344,0,0,0
0.1597,-0.0229,1.0398,-7.5267,-2.8015,9.6412,0,0,0
0.1743,-0.0212,1.0527,-5.6489,0.3817,10.7099,0,0,0
0.1792,-0.009,1.0564,-6.771,3.8626,12.5344,0,0,0
0.1677,0.0098,1.0588,-9.7786,7.0534,14.5954,0,0,0
0.1584,0.0203,1.0525,-14.542,9.4351,14.3511,0,0,0
0.1438,0.0364,1.0471,-19.4351,10.4198,13.4809,0,0,0
0.1389,0.0186,1.0171,-23.7405,10.0,13.3511,0,0,0
0.1299,-0.0469,1.0242,-23.4275,9.3435,13.9695,0,0,0
0.1392,-0.0635,1.0398,-15.5725,9.4275,14.4962,0,0,0
0.1316,-0.0432,1.0327,-7.8397,10.9466,13.5649,0,0,0
0.1387,-0.0044,1.0425,-3.7023,11.458,12.2748,0,0,0
0.137,0.0115,1.0437,-4.2137,11.8397,12.4809,0,0,0
0.144,0.0237,1.0601,-7.5573,12.9084,12.9466,0,0,0
0.1489,0.0239,1.0671,-11.7939,15.2443,12.5573,0,0,0
0.175,0.0405,1.0786,-15.5573,16.9618,11.8092,0,0,0
0.1624,-0.0166,1.0903,-17.1069,17.9237,9.5267,0,0,0
0.158,-0.0378,1.0825,-16.7176,20.7023,10.0763,0,0,0
0.1587,-0.0151,1.092,-18.2824,23.6336,11.2824,0,0,0
0.1536,0.012,1.0896,-21.9466,26.626,10.7328,0,0,0
0.1494,0.0156,1.1094,-26.4122,28.5496,7.6107,0,0,0
0.137,-0.0002,1.0876,-32.3206,31.145,5.9084,0,0,0
0.1743,0.0652,1.0713,-36.4275,32.855,4.2595,0,0,0
0.1306,-0.0791,1.092,-36.1908,32.8473,5.5038,0,0,0
0.1143,-0.0889,1.0757,-33.6794,33.4733,6.626,0,0,0
0.0994,-0.0601,1.0571,-33.0687,33.6794,6.2672,0,0,0
0.0828,-0.0439,1.0381,-33.542,32.9847,4.6107,0,0,0
0.0791,-0.0273,1.0259,-33.9389,31.5573,3.0305,0,0,0
0.0537,-0.0332,0.9915,-32.7099,29.9924,-1.5496,0,0,0
0.0396,-0.0254,0.979,-30.6412,28.1756,-6.9237,0,0,0
0.0198,0.022,0.9304,-27.8779,23.3053,-17.1374,0,0,0
-0.0383,-0.0071,0.8672,-28.8015,12.3511,-30.9771,0,0,0
-0.0596,-0.1094,0.8665,-22.1374,-2.9618,-34.1756,0,0,0
-0.061,-0.1506,0.8667,-5.1527,-18.3435,-34.5496,0,0,0
-0.0554,-0.1384,0.8635,9.0229,-32.2595,-34.2366,0,0,0
-0.0237,-0.1321,0.8684,20.8015,-42.1679,-37.0,0,0,0
-0.0037,-0.1648,0.9109,28.9542,-48.5038,-38.5878,0,0,0
0.0889,-0.0623,0.988,35.6947,-47.9924,-39.6489,0,0,0
0.0991,-0.0798,1.0107,39.9771,-39.8931,-44.5038,0,0,0
0.1157,-0.0688,1.0581,47.0763,-30.5802,-53.5191,0,0,0
0.1438,-0.0063,1.071,57.2137,-20.3893,-65.1908,0,0,0
0.1292,0.0212,1.0493,67.313,-10.4733,-74.5802,0,0,0
0.1118,0.0242,1.0295,75.2672,-4.9695,-81.6794,0,0,0
0.0803,0.0164,0.9893,82.8397,-5.2443,-87.4122,0,0,0
0.0923,0.0337,0.9973,89.1298,-8.7328,-91.6107,0,0,0
0.1377,0.0315,1.0496,92.2061,-8.1985,-93.8779,0,0,0
0.1277,0.1187,1.0688,92.4809,-5.5954,-99.5344,0,0,0
0.1294,0.1458,1.0491,88.7634,-2.2977,-111.0992,0,0,0
0.1165,0.1384,1.0095,82.9771,-2.8397,-118.145,0,0,0
0.0627,0.1069,0.9565,77.0992,-9.9695,-118.542,0,0,0
0.0642,0.0994,0.9458,75.855,-21.3359,-118.374,0,0,0
0.0276,0.0862,0.9048,78.4198,-36.4504,-113.9313,0,0,0
0.0276,0.1067,0.8892,78.0611,-52.4046,-104.542,0,0,0
0.0852,0.0867,0.9226,76.2901,-63.9084,-94.6718,0,0,0
0.0615,0.083,0.9365,75.0153,-72.6718,-85.3588,0,0,0
0.176,0.0044,1.0415,67.6107,-71.9924,-70.5344,0,0,0
0.2551,0.041,1.1357,60.8931,-58.8626,-48.2748,0,0,0
0.2695,0.1128,1.1709,52.5191,-41.5115,-33.7099,0,0,0
0.2695,0.1919,1.1604,34.5725,-25.8473,-26.229,0,0,0
0.2581,0.2358,1.1475,15.145,-14.145,-23.687,0,0,0
0.2522,0.23,1.1418,-2.4656,-3.5344,-19.9618,0,0,0
0.2458,0.1802,1.1152,-13.7023,8.084,-12.7863,0,0,0
0.2256,0.0959,1.0806,-15.2443,17.6489,-1.5878,0,0,0
0.1975,0.0994,1.052,-13.4122,24.4656,13.4733,0,0,0
0.1482,0.1514,0.9883,-10.5573,27.5344,25.6031,0,0,0
0.106,0.2432,0.9412,-12.3206,23.8855,31.8321,0,0,0
0.1223,0.2771,0.969,-19.7557,18.0534,30.0763,0,0,0
0.1348,0.2493,0.9934,-25.5267,18.6489,28.0229,0,0,0
0.167,0.207,1.0291,-22.6107,25.2366,30.8321,0,0,0
0.1506,0.1963,1.0164,-16.7328,33.6031,35.5649,0,0,0
0.1331,0.2366,0.9719,-15.374,36.626,41.1069,0,0,0
0.1069,0.2402,0.9358,-19.1985,35.1908,47.2519,0,0,0
0.0962,0.2385,0.9268,-26.7939,31.458,53.0076,0,0,0
0.0691,0.24,0.8975,-36.4275,25.9313,56.9618,0,0,0
0.1033,0.2122,0.8857,-47.0916,20.1908,59.3511,0,0,0
0.0964,0.1089,0.8884,-49.458,16.3893,60.7786,0,0,0
0.1208,0.0881,0.9299,-43.9237,12.6641,62.1298,0,0,0
0.1487,0.0867,0.9673,-38.4122,13.2366,66.2214,0,0,0
0.1868,0.094,1.0212,-35.8473,15.1603,70.6641,0,0,0
0.1885,0.1296,1.0583,-39.6031,25.2901,77.5115,0,0,0
0.165,0.1619,1.042,-41.4046,32.0992,76.9084,0,0,0
0.1196,0.1909,1.0127,-44.687,36.2137,68.7863,0,0,0
0.0786,0.1511,0.9736,-43.5344,34.3053,56.1069,0,0,0
0.0889,0.0796,0.9819,-34.1374,27.3511,44.6031,0,0,0
0.0901,0.0002,1.0095,-14.8321,23.1069,38.9466,0,0,0
0.0979,0.0332,1.0388,7.2901,21.4885,35.3893,0,0,0
0.0864,0.1169,1.0376,20.9771,19.8702,30.7481,0,0,0
0.064,0.2097,1.0095,20.5344,17.916,24.0229,0,0,0
0.0483,0.2456,1.0054,9.1603,13.1374,17.374,0,0,0
0.0425,0.2158,0.9954,-5.5344,7.5191,13.0153,0,0,0
0.0706,0.1345,1.0259,-16.771,4.2901,13.4504,0,0,0
0.0791,0.0774,1.0442,-16.6412,5.9771,13.4046,0,0,0
0.1003,0.0562,1.0549,-10.8779,9.3588,11.4427,0,0,0
0.0735,0.0796,1.0276,-3.8855,11.3588,9.229,0,0,0
0.0471,0.126,1.0115,0.1145,9.5344,6.4122,0,0,0
0.0361,0.1479,1.0015,-0.0687,5.9618,4.1679,0,0,0
0.0369,0.1475,1.0059,-1.1603,2.1298,0.9008,0,0,0
0.0471,0.1191,1.0098,-2.4733,0.0611,0.7405,0,0,0
0.0559,0.0942,1.0227,-0.0382,-1.8168,0.6947,0,0,0
0.0662,0.0999,1.0315,2.0916,-2.7939,-1.1145,0,0,0
0.0771,0.103,1.052,2.2595,-2.1069,-2.084,0,0,0
0.0769,0.1094,1.0527,0.2443,-1.4656,-1.229,0,0,0
0.0764,0.1301,1.0413,-2.2137,-0.145,-1.7939,0,0,0
0.0723,0.1392,1.0366,-5.0305,-0.4275,-3.8168,1,0,0
0.0818,0.1201,1.0291,-8.0687,-1.4198,-4.8092,1,0,0
0.0818,0.0906,1.0278,-7.3435,-2.313,-4.374,1,0,0
0.0728,0.1033,1.0127,-6.1374,-4.1145,-4.6412,1,0,0
0.0715,0.1216,1.011,-7.5191,-6.7634,-5.4427,1,0,0
0.0691,0.1284,1.0,-10.2824,-10.6107,-5.626,1,0,0
0.0862,0.0964,1.0134,-10.7328,-13.9466,-5.7099,1,0,0
0.082,0.072,1.0256,-8.1374,-16.5344,-4.7328,1,0,0
0.0686,0.075,1.0208,-2.6336,-17.771,-3.3817,1,0,0
0.0857,0.0945,1.0454,0.6489,-18.1679,-2.4122,1,0,0
0.0872,0.1069,1.0391,2.4504,-15.7481,-2.4275,1,0,0
0.084,0.1335,1.0286,2.0382,-11.9542,-2.6489,1,0,0
0.0554,0.1538,1.0137,-1.3969,-9.8168,-1.3435,1,0,0
0.0488,0.1367,0.9866,-6.1985,-9.3588,-0.7557,1,0,0
0.0403,0.105,0.9678,-9.0687,-9.8702,0.5802,1,0,0
0.0342,0.1079,0.9524,-9.6412,-11.6031,2.687,1,0,0
0.0305,0.1077,0.9409,-10.7099,-15.2595,3.6565,1,0,0
0.0374,0.0852,0.9531,-9.7557,-20.0229,5.0153,1,0,0
0.0676,0.0945,0.9731,-10.4427,-22.3511,7.0916,1,0,0
0.084,0.0894,0.998,-10.145,-22.7939,7.1679,1,0,0
0.1028,0.0662,1.0359,-9.5725,-21.2595,8.0611,1,0,0
0.1206,0.0601,1.0708,-9.084,-18.8702,10.8931,1,0,0
0.1379,0.0833,1.0942,-8.6107,-15.8473,11.9542,1,0,0
0.156,0.1208,1.1145,-11.687,-11.8931,10.5954,1,0,0
0.1646,0.1265,1.1235,-15.4656,-8.4198,7.229,1,0,0
0.1885,0.0449,1.155,-17.6412,-2.8397,6.0687,1,0,0
0.1853,0.0242,1.168,-14.2443,2.855,6.3435,1,0,0
0.1912,-0.0142,1.1699,-7.6947,9.9924,5.7634,1,0,0
0.1787,0.0276,1.1338,0.8702,14.4198,3.542,1,0,0
0.1682,0.0537,1.115,3.9924,16.8931,1.5649,1,0,0
0.189,0.0576,1.1174,4.6641,23.1374,2.2366,1,0,0
0.1868,0.0596,1.0979,3.4733,28.9847,4.0229,1,0,0
0.2463,-0.0227,1.0647,9.4885,39.8397,-4.9237,1,0,0
0.071,0.1589,1.0022,2.4885,35.7252,-4.0534,1,0,0
0.1118,0.0273,1.0203,4.1221,32.7863,-6.0,1,0,0
0.095,0.0935,1.0349,4.1832,29.6336,-6.1069,1,0,0
0.0613,0.0718,0.97,2.9008,23.8473,-4.1069,1,0,0
0.0542,0.0898,0.969,0.229,18.6031,-3.771,1,0,0
0.051,0.0994,0.9736,-2.5344,13.229,-5.0458,1,0,0
0.0537,0.0891,0.9746,-4.8092,7.7481,-6.084,1,0,0
0.0635,0.0818,0.9895,-7.1527,4.7557,-6.5802,1,0,0
0.0776,0.0676,0.9951,-7.9313,3.8702,-6.6794,1,0,0
0.0732,0.0862,0.989,-8.8168,3.4046,-5.9237,1,0,0
0.0623,0.1113,0.9905,-11.2901,2.3359,-6.9618,1,0,0
0.0549,0.1243,0.9922,-15.7863,1.1221,-9.3511,1,0,0
0.0366,0.1072,0.98,-18.626,-2.3969,-11.0382,1,0,0
0.0522,0.0984,0.9915,-16.6565,-5.229,-14.0611,1,0,0
0.0781,-0.0046,0.9751,-11.771,-8.1374,-11.2977,1,0,0
0.0637,0.0486,0.9788,-6.626,-10.8168,-4.6794,1,0,0
0.073,0.0518,0.9844,-5.4351,-10.6107,-6.4809,1,0,0
0.0657,0.0562,0.9702,-6.145,-11.3511,-5.2672,1,0,0
0.0801,0.0383,0.9841,-7.2824,-13.3053,-3.5191,1,0,0
0.1035,0.0425,1.012,-6.1145,-12.229,-3.855,1,0,0
0.1179,0.0254,1.0371,-3.1908,-8.9313,-3.5496,1,0,0
0.126,0.031,1.0493,1.2137,-3.374,-4.0992,1,0,0
0.1072,0.0476,1.0249,3.7786,0.2595,-3.2977,1,0,0
0.095,0.0774,1.0208,1.7481,0.1908,-2.9313,1,0,0
0.0857,0.0776,1.012,-1.4275,-0.5649,-3.2443,1,0,0
0.0854,0.075,1.0181,-4.2977,-1.8092,-3.9313,1,0,0
0.0964,0.0718,1.021,-6.1374,-1.5496,-4.3053,1,0,0
0.1023,0.0386,1.0393,-4.2061,0.2901,-3.4122,1,0,0
0.0955,0.0403,1.0459,-0.687,3.145,-2.4962,1,0,0
0.0942,0.0562,1.0508,1.6183,5.6489,-2.6031,1,0,0
0.0859,0.0518,1.0542,3.1069,7.0916,-2.0153,1,0,0
0.0789,0.0413,1.0276,6.0,7.4962,-0.8779,1,0,0
0.0862,0.0464,1.0276,8.0382,7.8015,-1.1221,1,0,0
0.1165,0.0637,0.9277,15.7939,7.9313,-7.5573,1,0,0
0.0378,0.146,1.0386,6.6107,8.8855,-4.8168,1,0,0
0.1023,0.0154,1.0505,5.0229,7.374,-4.7786,1,0,0
0.0854,0.0808,1.0784,4.9847,9.7176,-3.3359,1,0,0
0.0845,0.0652,1.0474,5.4504,12.2137,-4.4351,1,0,0
0.0818,0.1089,1.0566,2.0229,13.4733,-4.1908,1,0,0
0.0454,0.124,1.0303,-4.9771,11.3893,-3.1985,1,0,0
0.0413,0.1243,1.0217,-12.9389,8.1908,-4.2977,1,0,0
0.0496,0.0959,1.0234,-18.4656,4.4046,-4.7863,1,0,0
0.0479,0.0732,1.0356,-19.7634,2.4885,-5.4122,1,0,0
0.061,0.0479,1.0459,-18.2214,2.2443,-6.4809,1,0,0
0.0503,0.032,1.033,-15.9389,3.0153,-6.8397,1,0,0
0.0278,0.0479,1.0229,-13.7939,1.4427,-7.3893,1,0,0
0.0256,0.0442,1.0017,-12.313,-1.8855,-7.9313,1,0,0
0.0264,0.0334,1.0032,-7.771,-4.9771,-8.2672,1,0,0
0.0391,0.0325,1.0186,-4.6794,-8.0458,-6.8244,1,0,0
0.0598,0.0364,1.033,-3.0076,-9.0611,-4.2366,1,0,0
0.0571,0.0442,1.0408,-1.7939,-7.0153,-3.5496,1,0,0
0.0667,0.0515,1.0383,-0.4885,-5.0,-4.0,1,0,0
0.0601,0.0698,1.0388,-0.2214,-3.2519,-4.5496,1,0,0
0.0652,0.0779,1.0291,-2.3893,-3.1603,-4.8092,1,0,0
0.0681,0.0618,1.0347,-3.3206,-2.4046,-4.5649,1,0,0
0.0806,0.0576,1.0442,-3.2824,-0.4427,-3.7939,1,0,0
0.0803,0.0579,1.0439,-3.7176,2.2061,-4.3817,1,0,0
0.0857,0.0447,1.0437,-3.6641,4.2214,-5.542,1,0,0
0.0762,0.02,1.0334,-0.2137,4.855,-5.2214,1,0,0
0.0684,0.041,1.0251,2.4198,4.9542,-4.6489,1,0,0
0.0525,0.0688,1.0054,0.1985,2.6336,-4.1145,1,0,0
0.0488,0.0779,1.0039,-2.5802,-0.2748,-4.7328,1,0,0
0.0696,0.1033,0.998,-5.1679,-0.8168,-5.8626,1,0,0
0.0579,0.0911,1.0083,-5.313,-2.7786,-6.7634,1,0,0
0.0684,0.1096,0.9963,-6.6412,-2.542,-9.8626,1,0,0
0.0669,0.1292,1.0154,-9.916,-1.2214,-13.229,1,0,0
0.0735,0.1045,1.0017,-14.1908,-0.9542,-15.1298,1,0,0
0.0476,0.0313,1.0059,-13.6641,-0.1298,-16.2366,1,0,0
0.0642,0.0386,1.011,-6.8931,-0.1603,-16.9847,1,0,0
0.0457,0.0488,0.9661,-4.2824,-2.4733,-17.0611,1,0,0
0.0254,0.074,0.9517,-3.7328,-8.0687,-17.916,1,0,0
0.0391,0.0706,0.9712,-5.3359,-12.1527,-20.1298,1,0,0
0.0576,0.0569,0.9956,-6.1832,-12.7099,-21.1221,1,0,0
0.0576,0.0154,1.0095,-6.4427,-14.6794,-19.1603,1,0,0
0.0542,0.019,1.0112,-3.8473,-15.8473,-16.2214,1,0,0
0.0854,-0.0154,1.0271,0.9237,-14.2443,-13.8168,0,0,0
0.0811,0.0181,1.0142,6.374,-13.0611,-12.6718,0,0,0
0.1135,0.0039,1.0427,8.0153,-8.771,-11.7328,0,0,0
0.0974,0.0352,1.0601,8.3435,-3.7176,-8.5802,0,0,0
0.0894,0.0398,1.0515,6.2137,-0.6336,-6.8855,0,0,0
0.0901,0.0313,1.0442,3.9084,-0.3664,-5.9771,0,0,0
0.1006,0.022,1.0339,2.5573,0.6107,-4.3817,0,0,0
0.0952,0.0327,1.0386,1.7557,1.6107,-3.542,0,0,0
0.0828,0.0127,1.0486,2.9542,2.5038,-3.3206,0,0,0
0.0754,0.0295,1.0405,4.8473,1.1221,-1.5115,0,0,0
0.0833,0.0334,1.0378,6.3053,1.374,-1.5344,0,0,0
0.0742,0.0637,1.041,5.2672,1.2443,-2.1298,0,0,0
0.0754,0.0527,1.0435,2.6107,1.2214,-2.9924,0,0,0
0.0872,0.0334,1.0518,2.4504,2.9313,-2.9847,0,0,0
0.0869,0.04,1.0547,2.7634,5.2443,-2.9237,0,0,0
0.0894,0.0305,1.0664,4.5038,8.0076,-0.9618,0,0,0
0.0693,0.0496,1.0684,5.4046,9.6641,0.3664,0,0,0
0.0642,0.0696,1.0811,4.3817,11.9008,1.4351,0,0,0
0.0593,0.0781,1.0698,3.0305,13.8931,1.4198,0,0,0
0.0564,0.0813,1.063,1.145,15.6947,0.3893,0,0,0
0.051,0.0681,1.063,0.7099,17.1527,-0.2595,0,0,0
0.042,0.0718,1.071,1.0458,18.2519,-0.7023,0,0,0
0.0532,0.0681,1.073,1.8321,20.9084,-1.8015,0,0,0
0.0808,0.0801,1.1011,3.6565,23.5878,-0.3664,0,0,0
0.064,0.051,1.1099,5.9542,31.0916,-1.9313,0,0,0
0.0723,0.0806,1.1277,8.3435,37.7939,-3.2443,0,0,0
0.0366,0.0884,1.0747,8.1603,42.0916,-4.5344,0,0,0
0.011,0.0923,1.0386,3.9618,41.3282,-3.8244,0,0,0
-0.0044,0.0845,1.0129,-0.0229,37.5496,-2.145,0,0,0
0.0156,0.0535,1.0137,-0.2443,35.5496,-1.1985,0,0,0
0.0283,0.0002,1.0605,4.374,37.1527,0.7481,0,0,0
0.011,0.0164,1.0647,9.7481,39.855,2.1985,0,0,0
-0.0195,0.0605,1.0417,14.0611,40.9313,2.458,0,0,0
-0.0298,0.1038,1.001,14.6794,38.9771,1.4733,0,0,0
-0.0625,0.1172,0.9827,11.4809,33.4275,1.2748,0,0,0
-0.0562,0.0854,0.9958,7.7176,27.3664,3.7786,0,0,0
-0.053,0.0747,1.0229,6.1985,25.2443,4.1908,0,0,0
-0.0293,0.061,1.0317,7.9847,25.458,5.687,0,0,0
-0.0911,0.0286,0.9775,11.771,26.8779,6.9313,0,0,0
-0.0525,0.0664,0.9785,16.9313,25.8321,7.3359,0,0,0
-0.0569,0.0774,0.9841,19.4809,23.6412,6.7786,0,0,0
-0.0627,0.1194,0.9775,20.084,21.8015,7.2672,0,0,0
-0.1245,0.2991,0.9265,19.1756,23.0458,11.6107,0,0,0
-0.0808,0.1553,0.9736,13.6947,21.626,7.4809,0,0,0
-0.0483,0.1533,0.9958,9.9389,16.8092,0.2443,0,0,0
-0.1206,0.1101,0.9424,11.0458,4.6947,-0.7481,0,0,0
-0.0894,0.1169,0.9609,6.1603,-1.0,-0.5038,0,0,0
-0.0579,0.1157,0.9707,8.3435,-2.1145,1.6565,0,1,0
-0.0549,0.126,0.9956,8.7252,-0.9084,2.9771,0,1,0
-0.0874,0.1519,0.9546,7.7557,-1.2595,1.8931,0,1,0
-0.0913,0.1802,0.9519,2.7252,-4.4885,0.7405,0,1,0
-0.0771,0.1592,0.9548,-2.2672,-7.9237,-0.1603,0,1,0
-0.0583,0.145,0.9653,-5.9084,-10.4275,0.4885,0,1,0
-0.0583,0.1531,0.9897,-8.8397,-11.5954,-0.0382,0,1,0
-0.0645,0.1672,0.9939,-12.5649,-12.6031,-0.7405,0,1,0
-0.0745,0.1641,0.9807,-16.3206,-14.542,-1.8779,0,1,0
-0.0012,0.1223,0.9858,-20.9542,-19.3969,-2.687,0,1,0
-0.0698,0.1162,0.9883,-20.4198,-22.0611,-2.9847,0,1,0
-0.0608,0.115,0.9856,-21.145,-25.2214,-2.9618,0,1,0
-0.0469,0.0869,0.9446,-19.8931,-29.2061,-4.1069,0,1,0
-0.0574,0.0894,0.9966,-16.5649,-32.5496,-4.0611,0,1,0
-0.0015,0.0549,1.0286,-11.2748,-29.8779,-2.229,0,1,0
-0.0203,0.0806,1.0388,-6.542,-28.2901,0.1985,0,1,0
-0.0037,0.1045,1.0371,-5.2137,-25.5114,0.2061,0,1,0
-0.0095,0.0903,1.0405,-2.145,-22.6031,-0.3817,0,1,0
-0.0127,0.0981,1.0413,0.145,-20.9008,0.0687,0,1,0
-0.0061,0.113,1.0496,0.5191,-18.1832,-0.374,0,1,0
0.0066,0.1235,1.053,-0.0153,-14.4198,-2.4275,0,0,0
0.0066,0.1233,1.0522,-2.0992,-10.6718,-4.145,0,0,0
0.0083,0.1072,1.0559,-2.9771,-8.6031,-5.1374,0,0,0
0.0095,0.0938,1.0508,-2.4427,-6.3893,-4.5191,0,0,0
0.0027,0.0847,1.0464,-1.4656,-4.7557,-3.8931,0,0,0
0.0039,0.0874,1.052,-0.9389,-3.4733,-3.5878,0,0,0
0.0037,0.0911,1.051,-1.4198,-2.084,-3.1832,0,0,0
-0.0061,0.0911,1.0518,-1.4809,-0.8855,-2.9466,0,0,0
-0.0154,0.0869,1.0447,-1.3511,-1.3817,-1.4427,0,0,0
-0.0139,0.073,1.0481,-0.2137,-2.1374,-0.0763,0,0,0
-0.0037,0.0872,1.0522,1.4351,-0.9542,0.8626,0,0,0
-0.0049,0.1001,1.0671,1.5802,0.855,0.7176,0,0,0
-0.0015,0.0969,1.071,0.7557,3.229,0.4122,0,0,0
-0.0063,0.1006,1.0696,1.7557,6.1374,0.4275,0,0,0
-0.0127,0.1128,1.0693,1.6183,7.8626,0.229,0,0,0
-0.0081,0.1184,1.0884,0.8015,10.6489,0.0458,0,0,0
-0.0085,0.1401,1.1165,-0.5267,14.7557,-0.6489,0,0,0
-0.002,0.1404,1.1125,-0.4885,19.7252,-2.374,0,0,0
-0.0122,0.1199,1.0967,1.1527,23.8931,-4.771,0,0,0
-0.0012,0.0676,1.0857,8.3664,28.4656,-4.3664,0,0,0
-0.0613,0.0574,0.9851,15.1832,33.1985,-2.0916,0,0,0
-0.1326,0.1016,0.9512,23.7481,29.4733,-3.3359,0,0,0
-0.0598,0.2417,1.0547,5.0076,28.2824,-3.4962,0,0,0
-0.054,0.1526,1.0178,-1.8244,26.3969,-2.9008,0,1,0
-0.0696,0.1016,0.9988,-5.5649,20.8931,-3.0611,0,1,0
-0.0825,0.0862,1.0139,-4.9389,17.4427,-1.8244,0,1,0
-0.0815,0.1021,1.009,-3.145,14.687,-0.2748,0,1,0
-0.084,0.1228,0.9917,-4.6794,10.0611,0.0382,0,1,0
-0.0803,0.1323,0.991,-7.4809,6.7252,-0.5725,0,1,0
-0.0818,0.1272,0.9797,-10.2977,3.3282,-1.6031,0,1,0
-0.0674,0.1216,0.9846,-12.4198,0.1298,-1.8397,0,1,0
-0.0757,0.1096,0.9814,-14.4275,-1.9389,-1.8855,0,1,0
-0.0718,0.0957,0.9761,-15.9924,-4.7863,-0.1603,0,1,0
-0.0725,0.0649,0.9597,-13.7099,-7.0305,1.1374,0,1,0
-0.0796,0.0718,0.9656,-9.916,-9.229,1.6412,0,1,0
-0.064,0.0759,1.0037,-5.2595,-9.7634,1.9924,0,1,0
-0.0483,0.0979,1.002,-1.855,-9.5115,2.0458,0,1,0
-0.0549,0.1125,1.0005,-1.2824,-8.8626,2.1908,0,1,0
-0.0503,0.1323,1.0066,-1.6412,-9.8855,2.1221,0,1,0
-0.0527,0.1189,1.0178,-1.6641,-7.7786,0.2519,0,1,0
-0.043,0.106,1.0215,-0.7939,-6.3053,-0.4733,0,1,0
-0.0337,0.1201,1.0212,-2.229,-4.916,-0.5725,0,1,0
-0.043,0.1064,1.011,-3.2366,-4.084,-1.4275,0,1,0
-0.0398,0.0933,1.0237,-2.7634,-3.5649,-1.9542,0,0,0
-0.0293,0.0823,1.019,-1.9389,-2.6794,-1.7634,0,0,0
-0.0471,0.0999,1.0037,-2.0687,-2.458,-1.3435,0,0,0
-0.0474,0.1113,1.0115,-4.2214,-2.8626,-1.0611,0,0,0
-0.0471,0.114,1.0137,-5.9542,-3.9847,-1.4198,0,0,0
-0.0476,0.0999,1.0168,-7.3053,-4.7939,-1.7634,0,0,0
-0.0476,0.0693,1.0281,-5.5191,-3.9466,-0.855,0,0,0
-0.0386,0.071,1.0349,-2.1679,-2.7176,-0.0076,0,0,0
-0.0486,0.094,1.0288,0.0229,-2.8397,0.229,0,0,0
-0.0425,0.1228,1.0293,-1.2748,-3.2443,-0.8779,0,0,0
-0.0471,0.125,1.0244,-3.6336,-3.4046,-1.2061,0,0,0
-0.0466,0.1162,1.0269,-6.3206,-3.5038,-1.3588,0,0,0
-0.0513,0.1194,1.0232,-8.1908,-4.1679,-1.4962,0,0,0
-0.0435,0.1006,1.0334,-9.9084,-4.4275,-1.6412,0,0,0
-0.0366,0.0671,1.0425,-8.5038,-3.5954,-1.4122,0,0,0
-0.0303,0.074,1.0596,-5.6565,-1.4122,-0.2137,0,0,0
-0.0354,0.0872,1.0449,-4.9618,0.5878,0.0382,0,0,0
-0.0313,0.0901,1.0437,-6.1069,2.145,-0.4198,0,0,0
-0.042,0.0815,1.0427,-7.9847,3.1832,-0.0229,0,0,0
-0.0354,0.0645,1.0435,-9.7634,3.0611,1.5191,0,0,0
-0.0547,0.064,1.0405,-11.9542,2.8931,2.3053,0,0,0
-0.0366,0.0225,1.0518,-13.1756,2.7099,5.5573,0,0,0
-0.0388,0.0103,1.0645,-11.3969,5.0076,9.3359,0,0,0
-0.0322,0.0227,1.0613,-10.771,7.5038,13.1756,0,0,0
-0.0706,0.0132,1.0605,-12.7405,9.3664,15.084,0,0,0
-0.0583,0.032,1.0574,-14.0,9.4046,16.5344,0,0,0
-0.0603,0.0198,1.0337,-15.229,8.1908,18.8626,0,0,0
-0.0757,0.0283,1.0349,-14.4809,5.9771,21.1756,0,0,0
-0.0864,0.0635,1.02,-13.3511,3.4275,20.2977,0,0,0
-0.0762,0.0759,1.0203,-14.1832,1.4504,18.4351,0,0,0
-0.074,0.0828,1.0342,-15.5115,1.3359,16.3053,0,0,0
-0.0479,0.0549,1.0244,-16.4656,1.9389,16.0229,0,0,0
-0.0728,0.0537,1.0325,-12.4198,0.5725,16.626,0,0,0
-0.0588,0.073,1.0288,-10.771,-1.5954,16.3359,0,0,0
-0.0901,0.0935,1.0159,-10.2061,-3.458,15.3282,0,0,0
-0.0701,0.0947,1.0349,-11.5344,-3.4656,12.5496,0,0,0
-0.054,0.0898,1.0254,-12.4122,-3.7023,12.4733,0,0,0
-0.0552,0.0637,1.0371,-12.6031,-2.1756,12.0305,0,0,0
-0.0515,0.0684,1.0339,-12.1756,-1.9542,11.3893,0,0,0
-0.0654,0.0569,1.0195,-13.0534,-2.1374,9.7786,0,0,0
-0.0627,0.0586,1.0264,-10.5725,-3.458,8.687,0,0,0
-0.0505,0.0723,1.0078,-9.313,-4.229,7.1145,0,0,0
-0.0364,0.0513,1.0156,-9.2824,-5.9313,8.1374,0,0,0
-0.0286,0.0505,1.0254,-8.5573,-5.0611,10.4351,0,0,0
-0.0139,0.033,1.0518,-6.0153,-2.3817,11.6947,0,0,0
-0.019,0.0422,1.0388,-4.1527,-0.8702,13.0305,0,0,0
-0.0205,0.0823,1.0466,-5.0458,0.5802,12.3511,0,0,0
-0.0242,0.0881,1.0483,-6.7557,2.9542,9.1374,0,0,0
-0.0359,0.0986,1.0496,-9.4351,4.9466,5.4046,0,0,0
-0.0293,0.0715,1.0378,-11.4122,5.626,4.4046,0,0,0
-0.0283,0.0767,1.051,-12.9313,6.4046,3.3817,0,0,0
-0.0281,0.0427,1.0413,-12.3282,9.0153,1.145,0,0,0
-0.0283,0.0208,1.0518,-9.1603,12.0153,1.3282,0,0,0
-0.0181,0.0273,1.0566,-6.1221,16.3282,2.8244,0,0,0
-0.0359,0.0364,1.0461,-3.2443,19.7939,3.6336,0,0,0
-0.0518,0.0557,1.0195,-1.8473,20.4885,3.4275,0,0,0
-0.0759,0.0496,0.9875,-2.229,18.3588,4.5038,0,0,0
-0.0986,0.0525,0.978,-3.0763,15.3588,3.8931,0,0,0
-0.1057,0.0327,0.9565,-1.2748,10.8626,1.4198,0,0,0
-0.0916,0.0071,0.9666,0.5954,5.4351,0.7252,0,0,0
-0.0703,0.012,0.9998,5.3817,5.542,1.0916,0,0,0
-0.064,0.0354,1.0142,7.7557,7.3664,0.542,0,0,0
-0.0752,0.0547,1.0156,4.8168,8.4504,1.6183,0,0,0
-0.0808,0.0645,1.0183,0.8244,8.687,2.3435,0,0,0
-0.075,0.0623,1.0173,-2.3206,8.5573,1.8779,0,0,0
-0.0955,0.0469,0.9932,-2.9084,7.8931,0.9771,0,0,0
-0.094,0.0579,0.9922,-3.1374,5.5344,-0.2901,0,0,0
-0.0908,0.0286,1.0044,-2.9542,4.5267,0.1069,0,0,0
-0.0957,0.0308,1.0083,-1.5573,3.4656,0.4809,0,0,0
-0.1001,0.0239,0.9998,0.374,1.8473,0.1985,0,0,0
-0.0962,0.0386,1.0171,-0.1679,0.2748,0.3664,0,0,0
-0.0891,0.0532,1.0193,-1.4351,0.4351,-1.0382,0,0,0
-0.0898,0.0459,1.0205,-2.5649,0.1527,-2.2061,0,0,0
-0.0872,0.0281,1.0127,-2.5954,-0.1985,-2.3511,0,0,0
-0.094,0.0029,1.0154,-0.0153,-0.3969,-0.2595,0,0,0
-0.0881,0.0293,1.0142,2.3206,-0.9237,0.4275,0,0,0
-0.0845,0.0417,1.022,2.2137,-0.2901,0.4809,0,0,0
-0.0776,0.051,1.0386,0.5191,0.5038,1.0305,0,0,0
-0.0769,0.0503,1.0496,-1.1221,2.3969,-0.1985,0,0,0
-0.0808,0.0637,1.0347,-3.8015,3.4504,-0.8855,0,0,0
-0.0867,0.0376,1.033,-5.5725,3.4122,-1.0687,0,0,0
-0.0981,0.0227,1.0288,-4.4885,3.4962,-1.9389,0,0,0
-0.0962,0.0071,1.0259,-1.5573,2.6489,-1.4427,0,0,0
-0.0967,0.0298,1.0339,-0.0611,1.5649,-0.3664,0,0,0
-0.0947,0.0334,1.0281,0.7328,1.5115,-0.4046,0,0,0
-0.0918,0.0149,1.0254,2.1985,1.4351,0.1145,0,0,0
-0.1016,0.043,1.0291,2.6947,1.5649,1.0458,0,0,0
-0.1028,0.0322,1.0337,3.6183,2.0916,0.6031,1,0,0
-0.1006,0.0247,1.032,4.4656,1.2519,1.2366,1,0,0
-0.0911,0.0381,1.0461,6.1374,1.9771,2.4351,1,0,0
-0.0911,0.0588,1.0403,6.1985,3.1374,2.5267,1,0,0
-0.0823,0.0605,1.0112,7.4962,4.5115,-1.7634,1,0,0
-0.1067,0.1106,1.0266,1.0458,5.771,-2.3435,1,0,0
-0.1133,0.0405,1.0195,-0.0382,2.9924,-2.1756,1,0,0
-0.1094,0.021,1.0281,1.6794,2.4427,-1.6107,1,0,0
-0.1108,0.0254,1.0132,4.6489,0.9847,-2.5344,1,0,0
-0.095,0.0378,1.0181,6.1069,0.2061,-2.2824,1,0,0
-0.1055,0.074,1.002,3.313,-1.1069,-1.9695,1,0,0
-0.106,0.0854,1.0056,-1.0229,-2.9847,-2.5725,1,0,0
-0.1023,0.0667,1.019,-4.5573,-4.4275,-2.7405,1,0,0
-0.0854,0.0593,1.0305,-6.1069,-3.6489,-1.7863,1,0,0
-0.0828,0.0669,1.022,-6.5038,-2.2366,-0.626,1,0,0
-0.0977,0.0779,1.0183,-7.4427,-3.1221,-0.6183,1,0,0
-0.0977,0.0659,1.0063,-9.0687,-3.7328,-1.2443,1,0,0
-0.1035,0.0554,1.022,-9.3969,-4.3206,-2.3053,1,0,0
-0.0469,-0.0271,1.0105,-6.2977,-0.4656,-4.1298,1,0,0
-0.0884,0.0496,1.0425,-4.6412,-1.4504,-3.2595,1,0,0
-0.1079,0.0264,1.0024,-3.0153,-2.5954,-3.0916,1,0,0
-0.0974,0.0586,1.0249,-4.9466,-4.0382,-2.3588,1,0,0
-0.0986,0.0396,1.0259,-5.3664,-4.5725,-0.7863,1,0,0
-0.0828,0.0298,1.0332,-4.1069,-4.6794,0.0229,1,0,0
-0.093,0.0457,1.021,-3.1832,-5.3053,-0.0687,1,0,0
-0.0864,0.0391,1.0303,-3.0763,-5.1756,-0.1908,1,0,0
-0.0906,0.0374,1.0322,-1.9695,-4.7405,-1.0916,1,0,0
-0.0808,0.0317,1.0181,-0.6565,-4.5267,-1.4809,1,0,0
-0.0823,0.0454,1.0276,0.6565,-4.3511,-1.4351,1,0,0
-0.0789,0.0625,1.0232,0.0305,-3.4122,-1.7939,1,0,0
-0.0791,0.0671,1.0183,-1.7252,-2.6794,-2.3664,1,0,0
-0.0806,0.0581,1.0288,-3.3664,-1.6565,-2.9695,1,0,0
-0.0947,0.0437,1.0203,-2.7557,-1.6412,-3.0382,1,0,0
-0.0847,0.0366,1.0171,-1.687,-2.1985,-2.5344,1,0,0
-0.0881,0.0449,1.0137,-1.7863,-2.1603,-2.0076,1,0,0
-0.0947,0.0527,1.0061,-1.7099,-3.1527,-1.9924,1,0,0
-0.0811,0.0483,1.0144,-2.0229,-4.2748,-2.6107,1,0,0
-0.0784,0.0408,1.0203,-0.1527,-3.7481,-2.7481,1,0,0
-0.0798,0.0554,1.0132,0.5878,-3.374,-2.6183,1,0,0
-0.0862,0.0735,1.0044,-0.6031,-3.7634,-4.2519,1,0,0
-0.0862,0.0615,1.0132,-1.458,-4.8015,-6.1069,1,0,0
-0.0764,0.0488,1.0078,0.3359,-5.1298,-7.771,1,0,0
-0.083,0.043,1.0183,4.8321,-4.8702,-8.3511,1,0,0
-0.0762,0.0535,1.0181,8.8779,-4.5191,-10.458,1,0,0
-0.083,0.0779,1.0164,10.4427,-4.5191,-12.313,1,0,0
-0.092,0.0906,1.0046,11.7634,-5.916,-14.0,1,0,0
-0.0803,0.0891,1.0183,13.6641,-6.3053,-19.3588,1,0,0
-0.0725,0.0725,1.0205,19.6412,-5.0763,-25.5573,1,0,0
-0.072,0.064,1.0178,27.6183,-3.9313,-30.2137,1,0,0
-0.0735,0.0684,1.01,34.1069,-2.9313,-33.1679,1,0,0
-0.084,0.0811,1.0046,37.8702,-3.6641,-35.5191,1,0,0
-0.074,0.1084,1.012,34.9618,-4.0992,-33.0229,1,0,0
-0.0808,0.1057,1.012,29.8092,-5.374,-31.2672,1,0,0
-0.0837,0.1025,1.0288,26.2824,-6.3817,-31.374,1,0,0
-0.0647,0.0952,1.021,24.6565,-7.1985,-34.687,1,0,0
-0.0623,0.0769,1.0276,28.313,-7.0382,-37.2595,1,0,0
-0.0361,0.0791,1.0637,28.0611,-4.8931,-35.7405,1,0,0
-0.0522,0.1052,1.0544,26.2977,-2.3588,-31.7786,1,0,0
-0.0525,0.0964,1.0583,21.458,-0.2061,-27.3282,1,0,0
-0.061,0.1035,1.0498,16.4733,1.2443,-24.084,1,0,0
-0.0679,0.1023,1.0435,12.9389,1.4885,-22.5267,1,0,0
-0.0847,0.0925,1.0325,11.9084,0.2901,-21.7328,1,0,0
-0.0874,0.0852,1.0156,13.6336,-2.1069,-22.855,1,0,0
-0.0879,0.0977,1.0112,15.229,-4.2137,-22.855,1,0,0
-0.0776,0.0828,1.0315,15.9618,-4.5496,-20.8855,1,0,0
-0.0811,0.0962,1.0386,17.7176,-2.9542,-17.9389,1,0,0
-0.0947,0.1094,1.0339,17.1298,-2.7328,-14.7481,1,0,0
-0.1008,0.1431,1.0227,15.3664,-3.0305,-14.2061,1,0,0
-0.1069,0.1426,1.0161,14.8397,-4.2672,-15.6489,1,0,0
-0.1069,0.1453,1.0056,14.626,-6.5038,-15.4885,1,0,0
-0.1013,0.1416,1.0056,13.4809,-8.2595,-14.2824,1,0,0
-0.0957,0.1348,1.0176,15.2061,-9.2977,-15.2672,1,0,0
-0.0703,0.1113,1.0491,16.5802,-8.0076,-13.5725,1,0,0
-0.0701,0.1406,1.0508,17.0916,-5.2061,-9.7099,1,0,0
-0.0767,0.1682,1.0613,14.4885,-2.9847,-8.4198,1,0,0
-0.0798,0.1902,1.0571,13.9389,-1.0763,-14.374,1,0,0
-0.0696,0.1924,1.0593,15.0534,1.1832,-18.7252,1,0,0
-0.0671,0.1836,1.042,15.2061,2.6489,-20.1756,1,0,0
-0.0811,0.1692,1.0273,16.0076,3.5191,-20.1908,1,0,0
-0.0977,0.157,1.0071,16.8473,1.1679,-20.2672,1,0,0
-0.0962,0.0747,1.0186,19.8015,-4.3435,-21.2214,1,0,0
-0.0776,0.1985,0.9949,17.8015,-5.9771,-20.2519,1,0,0
-0.0957,0.1814,0.9817,17.7176,-8.9618,-20.7405,1,0,0
-0.104,0.1877,0.9849,20.8244,-11.5115,-23.5496,1,0,0
-0.0178,0.1597,1.0188,22.0,-14.8855,-26.9618,1,0,0
-0.071,0.207,1.0273,28.9237,-16.1145,-35.3588,1,0,0
-0.0381,0.1548,1.05,38.8168,-10.626,-40.2748,1,0,0
-0.062,0.2537,1.0298,45.0229,-5.2595,-39.9313,1,0,0
-0.0693,0.3127,1.0203,40.9313,-0.7099,-42.1603,1,0,0
-0.0854,0.3142,0.9954,35.9008,0.9313,-50.1145,1,0,0
-0.075,0.3228,0.9976,33.145,0.7634,-61.7405,1,0,0
-0.0942,0.2783,0.9875,33.8321,-1.2214,-66.9084,1,0,0
-0.0986,0.2275,0.9617,33.9847,-4.7786,-62.3893,1,0,0
-0.0933,0.1567,0.957,31.7405,-7.1221,-49.4351,1,0,0
-0.1169,0.2432,0.9414,24.7863,-11.1527,-37.4122,1,0,0
-0.0911,0.2622,0.9556,14.3282,-13.8244,-30.1145,1,0,0
-0.0669,0.2915,0.9924,4.626,-12.4733,-25.9389,1,0,0
-0.0503,0.2595,1.0154,-3.4275,-8.5038,-21.9466,1,0,0
-0.0393,0.2129,1.021,-4.5573,-3.0687,-18.6641,1,0,0
-0.0466,0.2229,1.0217,-0.6718,0.0,-16.7252,1,0,0
-0.0645,0.2427,1.0024,2.3588,2.4122,-14.771,1,0,0
-0.0903,0.2659,0.9968,2.1908,2.0229,-12.0534,1,0,0
-0.0728,0.2996,1.0034,-2.8626,2.1756,-9.3893,1,0,0
-0.0959,0.2795,1.0073,-9.7099,2.6183,-7.6641,1,0,0
-0.0698,0.2261,1.0193,-12.9695,3.687,-5.8779,1,0,0
-0.0784,0.1995,1.0247,-9.6947,4.8473,-4.0687,1,0,0
-0.0728,0.2207,1.0217,-5.1985,7.0763,-4.2595,1,0,0
-0.0718,0.2402,1.0112,-4.9237,8.9618,-4.7252,1,0,0
-0.0776,0.2566,1.0127,-5.6947,10.3435,-5.9924,1,0,0
-0.0837,0.2593,1.0281,-6.771,12.0458,-7.4885,1,0,0
-0.0881,0.2419,1.022,-6.7481,13.5344,-7.0,1,0,0
-0.0852,0.2346,1.0278,-6.5725,16.3664,-4.916,1,0,0
-0.1848,0.2122,1.0139,-7.9771,22.8779,-4.1756,1,0,0
-0.073,0.2397,1.0217,-10.5267,25.4427,-3.7405,1,0,0
-0.1116,0.2324,1.0103,-12.0763,26.5573,-2.6183,1,0,0
-0.1133,0.2295,1.0007,-14.2137,28.7481,-0.8779,1,0,0
-0.1274,0.23,0.9971,-16.3969,26.9618,0.2214,1,0,0
-0.1145,0.2502,1.0017,-19.8855,28.9237,1.5191,1,0,0
-0.1255,0.2241,1.0117,-21.6412,30.8397,2.3206,1,0,0
-0.1279,0.1848,1.0056,-20.6565,31.6565,3.5038,1,0,0
-0.1179,0.1924,1.0144,-19.6641,32.9924,7.1908,1,0,0
-0.1458,0.1851,1.0078,-21.2519,33.0229,11.4351,1,0,0
-0.0903,0.2078,1.0334,-26.8015,33.6947,17.4656,1,0,0
-0.1277,0.177,1.0391,-35.458,38.4046,27.2672,1,0,0
-0.1172,0.176,1.0181,-41.8779,42.6336,36.855,1,0,0
-0.1875,0.1509,0.9651,-48.5191,41.5191,45.145,1,0,0
-0.2036,0.1399,0.9668,-48.771,36.0,44.5344,1,0,0
-0.1401,0.144,1.0056,-43.9389,32.9237,43.0076,1,0,0
-0.1562,0.1323,1.0291,-37.0763,33.0916,40.6947,1,0,0
-0.1243,0.1111,1.0327,-30.6489,38.9695,39.374,1,0,0
-0.1833,0.1931,1.0242,-29.4656,43.229,38.9618,1,0,0
-0.1826,0.24,1.0039,-34.9466,44.8626,38.7786,1,0,0
-0.2695,0.1931,0.9436,-40.9084,41.5191,37.6107,1,0,0
-0.2678,0.1677,0.9507,-46.2519,34.9847,37.7557,1,0,0
-0.2849,0.1274,0.9294,-46.8397,29.4122,39.8321,1,0,0
-0.2004,0.1006,0.9675,-45.7099,25.5878,43.4351,1,0,0
-0.2319,0.0935,0.9495,-42.084,26.5344,45.5725,1,0,0
-0.2468,0.1262,0.9648,-38.3053,24.2824,45.084,1,0,0
-0.2546,0.1067,0.9534,-37.0229,19.7328,42.4275,1,0,0
-0.2512,0.093,0.9641,-32.8244,17.2748,38.5954,1,0,0
-0.2334,0.0901,0.9963,-27.8244,17.9008,37.5115,1,0,0
-0.2202,0.1111,0.9946,-24.0458,21.5649,37.771,1,0,0
-0.2859,0.135,0.9763,-20.6183,22.1221,33.9542,1,0,0
-0.2861,0.177,0.97,-20.6412,20.8473,26.3588,1,0,0
-0.2974,0.1746,0.9456,-20.1603,15.6718,20.6336,1,0,0
-0.2925,0.1028,0.9551,-16.3053,12.1603,18.3359,1,0,0
-0.2903,0.0898,0.9585,-8.2061,9.2443,18.9084,1,0,0
-0.2695,0.0991,0.9834,-3.3664,5.8779,19.4046,1,0,0
-0.2217,0.126,1.0183,-2.8397,10.855,19.3435,1,0,0
-0.2607,0.1506,1.0076,-0.9237,14.3511,17.1756,1,0,0
-0.2766,0.1536,0.9988,1.4656,15.6641,13.1069,1,0,0
-0.2852,0.176,0.9919,2.2672,14.4962,7.9237,1,0,0
-0.3057,0.1423,0.9661,6.1985,11.9237,1.8931,1,0,0
-0.3069,0.1035,0.9536,13.3359,8.1374,-0.1832,1,0,0
-0.3103,0.0813,0.959,24.1298,4.0687,-1.458,1,0,0
-0.3086,0.1077,0.9644,35.5878,0.3206,-6.4351,1,0,0
-0.2935,0.1741,0.9763,39.2061,-1.9695,-8.229,1,0,0
-0.2664,0.2224,0.9944,35.1603,-1.3588,-7.9847,1,0,0
-0.2729,0.1951,0.998,28.5802,-0.3435,-8.3282,1,0,0
-0.2798,0.1675,1.0137,27.9847,-0.1527,-12.8092,1,0,0
-0.283,0.1208,1.0115,37.7328,-0.0534,-20.9618,1,0,0
-0.2881,0.1609,1.0002,53.1832,-0.6107,-30.4962,1,0,0
-0.321,0.2102,0.9519,62.9084,-1.4046,-39.6031,1,0,0
-0.3384,0.239,0.9165,70.9389,-9.6947,-50.8931,1,0,0
-0.3538,0.2183,0.905,84.9008,-18.8092,-66.2214,1,0,0
-0.3442,0.2725,0.8979,96.1985,-30.0916,-76.5802,1,0,0
-0.3203,0.2803,0.8713,99.0534,-37.7481,-80.2977,1,0,0
-0.6648,0.2769,0.7732,95.2519,-60.5725,-74.7176,1,0,0
-0.2742,0.3201,0.9265,86.2137,-54.1527,-80.3664,1,0,0
-0.1897,0.3789,0.9871,68.4122,-51.0076,-79.6336,1,0,0
-0.0898,0.2927,1.0911,47.1069,-39.0611,-73.6565,1,0,0
-0.1184,0.365,1.0767,28.1603,-18.229,-70.2595,1,0,0
-0.1936,0.2988,1.0515,16.9542,-5.4885,-66.2748,1,0,0
-0.2375,0.2529,1.0073,14.4733,0.5954,-68.1145,1,0,0
-0.2874,0.2712,0.9358,15.4122,1.4046,-70.0534,1,0,0
-0.3076,0.3213,0.8708,15.0153,-6.1069,-72.0458,1,0,0
-0.3242,0.2676,0.8459,9.0229,-16.7099,-67.0382,1,0,0
-0.2876,0.2627,0.8865,-1.458,-23.0305,-52.9389,1,0,0
-0.2449,0.2664,0.9282,-12.9008,-23.1069,-39.5725,1,0,0
-0.2295,0.2778,0.9558,-24.1298,-20.3053,-34.7863,1,0,0
-0.2378,0.2957,0.9641,-34.374,-20.5038,-37.0076,1,0,0
-0.2131,0.2124,0.9844,-39.374,-15.0763,-36.7863,1,0,0
-0.2234,0.1501,0.981,-34.8015,-12.3359,-34.7557,1,0,0
-0.2053,0.105,0.9897,-23.2901,-7.8931,-28.6412,1,0,0
-0.2207,0.1289,0.968,-11.7405,-4.313,-21.5114,1,0,0
-0.2454,0.1641,0.9531,-4.5038,-2.229,-15.8473,1,0,0
-0.2773,0.2026,0.9207,-3.9313,-4.7863,-13.7405,1,0,0
-0.2942,0.2251,0.9067,-10.1756,-10.8473,-10.1374,1,0,0
-0.2874,0.2327,0.9226,-18.9237,-17.855,-9.4809,1,0,0
-0.2229,0.2007,0.9834,-33.4504,-19.0153,-2.4351,1,0,0
-0.2024,0.1753,1.0161,-32.7405,-13.4275,-3.0611,1,0,0
-0.1943,0.1719,1.0205,-30.9084,-5.1221,-0.1603,1,0,0
-0.1965,0.1516,1.0249,-29.0076,1.8092,1.8244,1,0,0
0.1304,0.217,1.053,-23.6641,9.1679,9.6031,1,0,0
-0.1814,0.0603,1.0386,-14.1298,21.8092,15.2595,1,0,0
-0.1609,0.1072,1.0405,-7.1908,32.5649,20.6794,1,0,0
-0.2349,0.1694,0.9941,-10.3588,35.374,29.2366,1,0,0
-0.2524,0.1934,0.9436,-22.0,33.8473,39.687,1,0,0
-0.2705,0.2095,0.947,-34.8092,29.9771,45.5878,1,0,0
-0.2437,0.1631,0.9695,-41.7786,26.626,48.374,1,0,0
-0.2429,0.113,0.9766,-46.4809,25.1756,58.9313,1,0,0
-0.2183,0.0645,0.9705,-47.3969,25.9847,71.229,1,0,0
-0.2566,0.0999,0.9753,-47.687,26.5038,84.229,1,0,0
-0.2925,0.1431,0.9446,-48.5954,29.5649,90.2519,1,0,0
-0.2163,0.2068,0.9819,-49.3893,26.4122,86.1374,1,0,0
-0.2783,0.2119,0.9421,-53.2824,26.855,80.1985,1,0,0
-0.3311,0.124,0.9436,-55.2977,20.3435,76.4657,1,0,0
-0.2844,0.114,0.9922,-54.4809,20.8321,77.3053,1,0,0
-0.2458,0.1443,0.9807,-54.1603,24.6489,77.4428,1,0,0
-0.2942,0.1509,0.9595,-52.4656,24.2214,72.5954,1,0,0
-0.3232,0.1458,0.9531,-50.5344,21.5344,66.7176,1,0,0
-0.3015,0.1384,0.9563,-46.7481,18.7176,59.5878,1,0,0
-0.2656,0.0464,0.9995,-41.3359,18.5802,54.0687,1,0,0
-0.28,0.0383,1.0049,-30.3817,24.6031,52.0763,1,0,0
-0.241,0.095,1.0493,-23.8397,31.5114,53.1374,1,0,0
-0.3003,0.134,0.999,-24.3588,36.3969,53.3511,1,0,0
-0.3796,0.1931,0.9446,-30.6183,33.1908,49.4733,1,0,0
-0.397,0.1331,0.9207,-35.8855,24.5725,42.1603,1,0,0
-0.4009,0.085,0.9148,-32.0916,14.7405,35.4046,1,0,0
-0.3879,0.0508,0.9187,-23.0153,5.2519,31.229,1,0,0
-0.374,0.0608,0.9163,-13.7099,-0.9618,30.1603,1,0,0
-0.3821,0.0618,0.9031,-5.3511,-7.3588,29.3588,1,0,0
-0.3889,0.115,0.8989,-2.5954,-13.5725,29.5496,1,0,0
-0.3933,0.0972,0.9006,-2.855,-23.3282,29.0458,1,0,0
-0.3726,0.125,0.9058,-5.3282,-32.8015,29.542,1,0,0
-0.5955,0.0757,0.8975,-6.7023,-39.7328,27.0076,1,0,0
-0.3325,0.123,0.9075,-5.7405,-54.3893,24.1374,1,0,0
-0.4275,0.1433,0.8708,-3.2824,-72.3893,19.4504,1,0,0
-0.3777,0.1223,0.874,2.7481,-84.2977,14.1679,1,0,0
-0.2961,0.0737,0.929,4.916,-101.3664,8.8473,1,0,0
-0.179,0.0879,1.0225,7.9389,-101.2443,11.7328,1,0,0
-0.1748,0.1455,1.0295,3.7252,-93.8702,11.916,1,0,0
-0.1868,0.1716,1.0093,-1.9924,-90.1374,6.5573,1,0,0
-0.2163,0.1714,0.9707,-5.3969,-94.626,-3.1527,1,0,0
-0.1692,0.1177,0.9927,2.9695,-99.7939,-15.4275,1,0,0
-0.2087,0.114,0.991,23.2595,-111.1679,-30.855,1,0,0
-0.3127,-0.0625,0.99,50.1985,-122.626,-43.7863,1,0,0
-0.0605,0.0918,1.0281,64.9084,-128.771,-53.0382,1,0,0
0.0369,0.178,1.1313,70.8702,-119.397,-56.7405,1,0,0
0.2222,0.2178,1.2268,67.458,-84.7328,-64.2366,1,0,0
0.197,0.3018,1.3323,71.771,-50.1374,-89.8092,1,0,0
0.1057,0.302,1.3108,78.5038,-20.4275,-115.8855,1,0,0
0.0281,0.2664,1.1692,84.6641,1.1221,-140.0763,1,0,0
-0.0117,0.2051,1.1138,97.8321,6.9771,-148.9084,1,0,0
-0.073,0.2119,1.0986,102.2977,6.916,-150.5649,1,0,0
0.0161,0.396,1.1255,96.2137,16.6107,-144.2672,1,0,0
-0.0298,0.3892,1.1326,71.0916,28.6412,-139.0534,1,0,0
0.0049,0.4277,1.1235,46.3588,42.4885,-135.3893,1,0,0
0.0313,0.3787,1.2017,26.8855,58.0763,-136.7939,1,0,0
0.0764,0.301,1.2043,14.2748,86.6641,-144.2901,1,0,0
-0.0337,0.2813,1.0859,-0.7939,107.4886,-138.3282,1,0,0
-0.1367,0.2502,0.9749,-8.7023,109.7405,-122.2748,1,0,0
-0.1814,0.2273,0.9114,-13.2366,102.6794,-105.4275,1,0,0
-0.3604,0.0986,0.7942,-5.374,81.4122,-86.2061,1,0,0
-0.2847,0.136,0.8423,-8.0153,67.3206,-73.9313,1,0,0
-0.1753,0.1584,0.9338,-19.0458,68.6718,-57.9847,1,0,0
-0.1804,0.1887,1.0002,-30.687,74.1221,-45.8092,1,0,0
-0.2542,-0.0278,1.01,-47.7863,86.7023,-41.084,1,0,0
-0.0798,0.0381,1.02,-55.3053,96.7863,-26.2824,1,0,0
-0.207,0.0618,0.9771,-56.313,109.0153,-17.4962,1,0,0
-0.353,0.0671,0.917,-48.8626,106.5267,-10.4427,1,0,0
-0.4631,0.1099,0.811,-44.4962,97.1298,0.7252,1,0,0
-0.4436,0.1411,0.7751,-52.7786,81.542,17.7252,1,0,0
-0.4253,0.197,0.783,-66.542,71.8015,29.3435,1,0,0
-0.3413,0.2395,0.8342,-77.5954,68.1756,37.4427,1,0,0
-0.3857,0.1804,0.8215,-90.7481,65.5344,40.0611,1,0,0
-0.459,0.0632,0.7915,-86.3053,57.9237,44.9084,1,0,0
-0.4998,0.0176,0.7319,-73.1527,43.313,55.1679,1,0,0
-0.5605,0.0498,0.6875,-67.0611,25.5496,70.5267,1,0,0
-0.5457,0.1101,0.6873,-73.6947,6.1756,88.6336,1,0,0
-0.4915,0.1038,0.7295,-80.5267,-12.2443,100.8397,1,0,0
-0.4539,0.0745,0.7588,-83.8855,-24.5191,106.1221,1,0,0
-0.4241,0.1135,0.8318,-86.8092,-37.3206,108.397,1,0,0
-0.3743,0.1912,0.8857,-98.1221,-39.9542,113.2214,1,0,0
-0.3669,0.1802,0.8767,-111.9008,-34.229,113.4046,1,0,0
-0.3892,0.0671,0.9175,-105.1221,-32.145,107.8168,1,0,0
-0.4063,0.0344,0.9084,-84.6947,-32.6641,91.6565,1,0,0
-0.3911,0.0691,0.9287,-64.2977,-35.9237,79.3588,1,0,0
-0.335,0.0525,0.9873,-55.5954,-35.1145,72.3053,1,0,0
-0.282,0.0952,1.0093,-62.1069,-27.2443,79.0229,1,0,0
-0.344,0.1338,0.9753,-73.9695,-23.4733,79.3588,1,0,0
-0.4104,0.1006,0.9141,-82.7176,-27.084,69.3511,1,0,0
-0.3948,0.0691,0.9526,-78.9542,-30.3588,53.0916,1,0,0
-0.4207,0.0601,0.8989,-67.8626,-39.2366,39.2443,1,0,0
-0.4553,0.0676,0.833,-57.5725,-53.5954,27.687,1,0,0
-0.4568,0.063,0.8584,-51.2214,-74.0153,21.8779,1,0,0
-0.386,0.0217,0.9077,-51.7176,-91.6412,23.4351,1,0,0
-0.2988,-0.042,1.0081,-47.542,-93.1756,24.2595,1,0,0
-0.2043,-0.071,1.0266,-39.0,-83.9695,21.5191,1,0,0
-0.3027,-0.012,0.9609,-30.3664,-80.7557,13.1756,1,0,0
-0.3914,0.0203,0.8379,-24.1221,-92.1527,5.5115,1,0,0
-0.4868,0.0496,0.708,-25.145,-120.6183,1.6641,1,0,0
-0.2605,-0.0442,0.5671,-21.8931,-156.4046,2.9237,1,0,0
-0.4453,-0.0815,0.7827,-4.2748,-201.8321,-4.1298,1,0,0
0.0447,-0.2065,0.8198,18.3435,-210.2137,-13.626,1,0,0
-0.1711,-0.1853,0.9333,44.2214,-217.2137,-17.0611,1,0,0
0.0164,-0.104,1.0183,46.9389,-228.7633,-13.2519,1,0,0
0.2771,-0.073,1.1265,35.9771,-214.8321,-4.1374,1,0,0
0.2949,0.0496,1.2104,25.5878,-195.1145,-0.3893,1,0,0
0.2561,0.0569,1.2749,7.6412,-173.771,-3.0763,1,0,0
0.2751,0.019,1.2063,-2.8244,-155.5572,-14.5038,1,0,0
0.3528,-0.063,1.2031,3.3588,-140.4351,-21.0687,1,0,0
0.3062,-0.1467,1.1919,21.3359,-119.1756,-30.7099,1,0,0
0.3542,-0.0508,1.2251,45.687,-100.6412,-38.313,1,0,0
0.415,-0.1287,1.303,67.313,-67.8779,-46.374,1,0,0
0.4053,0.01,1.2888,84.4962,-35.2672,-57.3282,1,0,0
0.3108,0.0947,1.2017,89.229,-11.3053,-71.2672,1,0,0
0.2727,0.1235,1.144,89.4504,4.5573,-82.542,1,0,0
0.2688,0.197,1.145,90.2748,17.4427,-99.2977,1,0,0
0.2476,0.2913,1.125,91.4962,33.7023,-127.5496,1,0,0
0.2202,0.2813,1.105,98.3817,44.9389,-157.5649,1,0,0
0.2346,0.0959,1.1177,109.1985,57.0153,-168.7099,1,0,0
0.1589,0.0215,1.0564,126.1069,67.3283,-149.3893,1,0,0
0.1074,0.2368,1.0076,119.313,70.1527,-122.626,1,0,0
0.0977,0.5029,0.9897,85.1985,71.7939,-115.4122,1,0,0
0.0801,0.3323,0.9929,46.6794,73.2977,-109.2672,1,0,0
0.0168,0.2375,0.9236,29.2748,66.397,-90.4122,1,0,0
-0.0415,0.2207,0.8623,19.0687,52.3511,-75.7328,1,0,0
0.0354,0.2849,0.8853,15.2519,39.8779,-67.542,1,0,0
0.0967,0.2283,1.01,13.1603,45.2977,-60.9313,1,0,0
0.1477,0.218,1.1084,6.084,60.7863,-46.5191,1,0,0
0.1287,0.3726,1.1086,-8.1374,79.8855,-39.3053,1,0,0
0.0862,0.3689,1.0828,-26.8473,89.6947,-39.1756,1,0,0
0.0459,0.2537,1.0496,-32.0305,98.2672,-34.7023,1,0,0
0.0032,0.2354,0.9858,-33.5725,97.6336,-29.6641,1,0,0
-0.0298,0.282,0.9595,-31.1679,98.4886,-21.4885,1,0,0
-0.0881,0.3584,0.9243,-37.5115,92.7099,-17.7023,1,0,0
0.0146,0.282,1.0303,-47.6718,97.8168,-13.1145,1,0,0
-0.0532,0.2263,1.0251,-54.3053,106.1603,-12.1985,1,0,0
-0.1455,0.2263,0.9539,-58.6641,107.9695,-10.1069,1,0,0
-0.1763,0.1111,0.8997,-54.3893,104.3053,-3.4656,1,0,0
-0.2502,0.1116,0.8721,-52.5496,100.2519,16.8397,1,0,0
-0.2937,0.1611,0.7993,-58.4809,81.7863,32.3893,1,0,0
-0.3374,0.1992,0.7871,-71.6107,62.6718,42.2748,1,0,0
-0.3943,0.1743,0.7551,-83.5725,40.4351,54.5344,1,0,0
-0.395,0.1079,0.7483,-89.4275,12.6107,65.687,1,0,0
-0.3005,0.1367,0.834,-91.9771,-2.4504,75.7023,1,0,0
-0.1711,0.0737,0.9524,-96.8015,-2.0229,90.7863,1,0,0
-0.177,0.073,0.9653,-102.3588,4.6565,106.4809,1,0,0
-0.2092,0.0723,0.9548,-99.6947,5.3664,112.313,1,0,0
-0.2295,0.1091,0.9626,-87.6336,5.3588,99.5725,1,0,0
-0.2036,0.0928,0.9666,-69.5954,4.6336,82.4657,1,0,0
-0.2297,0.1262,0.9563,-63.5191,6.6794,74.2443,1,0,0
-0.269,0.1611,0.948,-65.9237,-1.687,69.0534,1,0,0
-0.2498,0.1772,0.9673,-74.6489,-7.5267,61.9389,1,0,0
-0.2324,0.0745,0.9949,-70.6718,-12.229,49.6031,1,0,0
-0.2183,-0.0127,0.9971,-56.4885,-15.7405,40.4351,1,0,0
-0.188,-0.0278,1.0112,-40.5344,-16.5038,33.4656,1,0,0
-0.1582,0.0378,1.0281,-31.4809,-11.2366,27.0687,1,0,0
-0.1282,-0.012,1.0884,-28.7557,-4.8626,24.4351,1,0,0
-0.1409,0.0281,1.0833,-27.626,4.9084,23.4809,1,0,0
-0.2031,0.0632,1.0444,-26.8015,7.084,14.0992,1,0,0
-0.2241,0.0317,1.0215,-22.6489,5.3817,5.4885,1,0,0
-0.2412,0.0098,0.9744,-18.0992,0.3817,2.6489,1,0,0
-0.25,-0.0076,0.9717,-15.5267,-7.2748,-0.5496,1,0,0
-0.179,-0.0417,1.0312,-9.1756,-6.1221,0.9313,1,0,0
-0.1965,0.0022,1.0217,-5.8626,-2.0382,1.313,1,0,0
-0.2168,0.0464,1.0117,-7.5878,-1.0992,-2.0992,1,0,0
-0.207,-0.0022,1.0205,-8.2214,-1.5267,-2.8321,1,0,0
-0.2104,0.0007,1.0105,-8.7023,-1.6489,-1.7023,1,0,0
-0.2161,0.009,0.9985,-10.2443,-3.4275,0.3435,1,0,0
-0.2446,0.0388,0.9768,-12.5649,-6.2672,0.9313,1,0,0
-0.2732,0.0278,0.9448,-17.9542,-14.5878,1.2061,1,0,0
-0.2488,-0.085,0.9221,-16.8473,-26.2824,2.3511,1,0,0
-0.1667,-0.0879,1.0425,-14.2519,-27.9542,9.7481,1,0,0
-0.1614,-0.0405,1.0493,-11.2137,-19.3282,14.0305,1,0,0
-0.1975,0.0366,1.0125,-15.5649,-19.5878,13.3053,1,0,0
-0.2068,0.0447,1.0,-20.3435,-21.8855,8.7328,1,0,0
-0.2112,0.0059,0.9939,-20.9542,-26.5114,4.9924,1,0,0
-0.2173,0.0498,0.9705,-23.1374,-33.4504,7.5344,1,0,0
-0.2693,0.0417,0.9014,-29.5802,-49.3588,7.8855,1,0,0
-0.165,-0.0481,0.9702,-33.5038,-60.687,8.9008,1,0,0
-0.0815,-0.0928,1.0315,-30.7481,-54.8931,10.0992,1,0,0
-0.1218,-0.0674,1.0391,-24.1603,-46.8855,8.3511,1,0,0
-0.1099,-0.0562,1.0532,-20.5038,-41.3664,5.084,1,0,0
-0.1711,-0.0164,1.0234,-17.6107,-44.5191,0.7481,1,0,0
-0.1274,-0.0496,1.0193,-14.3053,-46.855,-2.8626,1,0,0
-0.095,-0.0413,1.0537,-9.7786,-46.229,-5.4733,1,0,0
-0.1113,0.0137,1.0107,-4.6031,-48.9389,-13.9618,1,0,0
-0.0398,-0.1089,1.061,2.1527,-37.7176,-20.313,1,0,0
0.1182,-0.1951,1.1545,11.9618,-19.9542,-15.9695,1,0,0
0.0911,-0.1536,1.1814,28.1374,-5.6947,-19.229,1,0,0
0.03,-0.0833,1.1353,36.3206,10.2137,-24.6794,1,0,0
-0.0442,-0.0459,1.0657,38.542,17.4427,-28.1527,1,0,0
-0.0461,-0.0801,1.0615,44.3969,19.8473,-32.7252,1,0,0
-0.0405,-0.0894,1.0574,52.6718,23.7786,-34.4198,1,0,0
-0.0662,-0.0461,1.0339,57.1756,28.4122,-36.1679,1,0,0
-0.1064,0.032,0.9844,48.1527,28.7481,-27.9237,1,0,0
-0.1516,0.0522,0.9292,25.7023,20.9695,-18.9924,1,0,0
-0.1255,-0.0229,0.9753,11.8779,11.7405,-13.9924,1,0,0
-0.0691,-0.0571,1.0317,11.7634,13.3969,-15.1298,1,0,0
-0.071,-0.0374,1.0388,14.7176,19.1374,-15.145,1,0,0
-0.1094,0.0127,1.0088,11.5802,21.5344,-12.8931,1,0,0
-0.1196,0.0159,1.0137,7.4427,20.7481,-11.8015,1,0,0
-0.1123,-0.009,1.019,5.7328,22.7405,-10.0382,1,0,0
-0.1487,0.0051,1.002,5.4275,22.2901,-6.0763,1,0,0
-0.1582,0.0181,0.9722,2.3359,19.8244,-1.8779,1,0,0
-0.1765,0.0383,0.9768,-2.0153,14.4427,1.9237,1,0,0
-0.1614,0.0164,0.99,-6.2214,9.6565,5.0305,1,0,0
-0.1375,0.0015,1.0239,-7.0687,8.9542,6.8626,1,0,0
-0.1182,0.0022,1.0393,-5.9389,10.458,7.5649,1,0,0
-0.1028,0.0012,1.0481,-4.9542,14.6641,8.8855,1,0,0
-0.1162,0.0042,1.0422,-4.6641,20.0153,9.2214,1,0,0
-0.1211,0.0415,1.0308,-6.6718,23.8092,8.8473,1,0,0
-0.1746,0.0623,1.0117,-13.1908,22.2061,9.9313,1,0,0
-0.1912,0.063,0.9734,-19.3053,16.7405,9.458,1,0,0
-0.1968,0.0696,0.9719,-23.1756,9.313,6.3435,1,0,0
-0.1614,0.0259,1.0042,-23.6641,4.687,4.8702,1,0,0
-0.1504,-0.0244,1.0159,-19.4427,4.2977,5.5649,1,0,0
-0.1638,-0.0386,1.011,-13.7328,3.8244,4.5649,1,0,0
-0.1667,-0.0217,1.0002,-8.458,1.4656,2.8855,1,0,0
-0.1338,-0.0342,1.0276,-4.5115,0.5725,4.6489,1,0,0
-0.1086,-0.0146,1.0474,-1.7786,4.9084,6.0534,1,0,0
-0.1223,0.0193,1.0288,-1.1679,8.2977,4.3664,1,0,0
-0.1641,0.0366,1.0098,-1.4656,7.8702,1.6031,1,0,0
-0.1687,0.0571,0.9941,-3.1603,4.3969,-2.4656,1,0,0
-0.1501,0.033,1.0085,-5.313,2.1145,-4.3817,1,0,0
-0.1384,0.0049,1.011,-5.2901,2.9389,-4.3206,1,0,0
-0.1514,0.0181,0.9988,-4.5954,3.6565,-5.8244,1,0,0
-0.1626,0.03,0.98,-4.771,2.5191,-8.3893,1,0,0
-0.1794,0.0027,0.9712,-4.3435,-0.2824,-9.8779,1,0,0
-0.1743,-0.0203,0.988,-1.7328,-2.7557,-7.5649,1,0,0
-0.1538,-0.0359,1.0054,1.229,-4.3893,-3.458,1,0,0
-0.114,-0.012,1.043,3.7634,-0.1985,-1.2366,1,0,0
-0.146,0.0474,1.0381,1.7405,5.1985,-1.3053,1,0,0
-0.1782,0.0588,1.009,-4.0992,6.313,-3.8931,1,0,0
-0.1855,0.0325,1.0044,-8.855,4.7939,-5.916,1,0,0
-0.188,0.0044,1.0056,-10.1298,4.2748,-7.4809,1,0,0
-0.1965,-0.0144,0.9951,-8.7099,2.4656,-7.7634,1,0,0
-0.2117,-0.0227,0.9756,-6.2748,-1.4809,-8.2519,1,0,0
-0.2148,-0.0413,0.9844,-3.0763,-5.6794,-7.771,1,0,0
-0.1958,-0.0449,0.9963,0.5344,-8.2748,-7.084,1,0,0
-0.1907,-0.0266,1.0051,2.0076,-10.0,-6.0763,1,0,0
-0.1702,-0.0188,1.0161,0.458,-9.6641,-5.4809,1,0,0
-0.1724,-0.0432,1.0156,-1.458,-8.8244,-5.145,1,0,0
-0.1716,-0.0569,1.0325,-1.8473,-7.2672,-4.0916,1,0,0
-0.1899,-0.0581,1.0212,-0.7786,-6.458,-3.3817,1,0,0
-0.2178,-0.0474,1.0254,0.5954,-8.1603,-3.0229,1,0,0
-0.1909,-0.0483,1.0259,2.4275,-10.9924,-1.7939,1,0,0
-0.1765,-0.0342,1.0393,3.6794,-12.2672,-1.1603,1,0,0
-0.1655,-0.033,1.0586,4.0534,-10.4046,-0.626,1,0,0
-0.1646,-0.0173,1.0471,2.9389,-8.2977,-0.1603,1,0,0
-0.1611,-0.031,1.0505,1.0763,-6.4504,1.4351,1,0,0
-0.1553,-0.0208,1.0557,0.6565,-4.2748,2.5725,1,0,0
-0.1592,-0.0149,1.0457,-0.3511,-1.7786,1.7328,1,0,0
-0.1636,-0.011,1.04,-0.7099,-0.6489,0.9542,1,0,0
-0.1699,-0.0088,1.0361,-0.5573,-1.8473,1.6947,1,0,0
-0.1646,-0.0071,1.0366,-0.1985,-2.687,1.916,1,0,0
-0.1675,0.002,1.0364,-0.7252,-2.6641,1.7405,1,0,0
-0.166,0.0034,1.043,-1.8244,-2.2061,1.687,1,0,0
-0.1594,0.0005,1.0376,-2.4656,-1.9084,2.1679,1,0,0
-0.1541,0.011,1.0393,-2.5344,-0.9618,2.2595,1,0,0
-0.155,0.01,1.0325,-2.5573,-0.458,2.313,1,0,0
-0.1472,0.0098,1.0312,-2.4275,0.1985,1.6412,1,0,0
-0.1519,0.0083,1.0315,-2.084,0.8855,1.0992,1,0,0
-0.1562,0.0142,1.0217,-1.7328,0.5344,0.9847,1,0,0
-0.1462,0.0054,1.0164,-2.6336,0.313,1.5954,1,0,0
-0.145,0.0037,1.0088,-2.5573,0.4122,1.7023,1,0,0
-0.1528,0.0188,1.0107,-3.8321,0.4275,0.7481,1,0,0
-0.1516,0.0129,1.0115,-4.7176,-0.229,0.3435,1,0,0
-0.1487,0.002,1.0032,-4.626,-0.6794,0.7481,1,0,0
-0.1487,0.0105,1.0046,-4.6031,-0.855,0.6947,1,0,0
-0.1497,-0.0002,1.0027,-4.3893,-0.9389,0.0916,1,0,0
-0.1436,0.0017,1.0078,-3.9313,-0.5954,0.8168,1,0,0
-0.1406,0.0215,1.0056,-2.9771,0.1527,1.5802,1,0,0
-0.1423,0.0308,1.0066,-2.7481,0.7481,0.4809,1,0,0
-0.1438,0.0303,1.0032,-3.8702,0.2901,-0.8702,1,0,0
-0.1414,0.0261,1.0051,-5.4504,-0.2519,-1.4275,1,0,0
-0.1345,0.0217,1.0107,-6.3893,-0.1832,-1.8473,1,0,0
-0.1389,0.0161,1.0156,-6.6641,-0.2748,-2.1298,1,0,0
-0.1392,0.0063,1.0132,-6.9924,-0.1985,-2.1985,1,0,0
-0.1448,0.002,1.0188,-7.3588,-1.0229,-2.8931,1,0,0
-0.1367,-0.0017,1.0129,-6.4656,-0.8855,-2.7634,1,0,0
-0.1426,-0.01,1.0164,-4.855,-0.3817,-2.8779,1,0,0
-0.1477,-0.0215,1.0144,-3.2137,-0.458,-2.3664,1,0,0
-0.1453,-0.0093,1.0142,-2.4275,-0.9542,-1.4733,1,0,0
-0.1499,0.0007,1.0125,-2.916,-0.8321,-2.145,1,0,0
-0.1587,-0.0022,1.0129,-3.9084,-1.7405,-2.6412,1,0,0
-0.1616,-0.0044,1.0105,-4.0382,-3.0458,-2.6107,1,0,0
-0.1572,-0.0117,1.0159,-4.2824,-3.8702,-2.1527,1,0,0
-0.1467,-0.0164,1.0227,-3.0229,-3.145,-2.4885,1,0,0
-0.1533,-0.0085,1.0264,-3.0534,-1.8015,-2.8168,1,0,0
-0.155,-0.0176,1.0271,-3.1603,-1.7023,-2.9924,1,0,0
-0.1626,-0.021,1.0251,-2.3588,-1.8397,-2.7557,1,0,0
-0.1606,-0.0181,1.0259,-2.1298,-2.229,-2.4809,1,0,0
-0.155,-0.0181,1.0332,-1.8168,-2.0763,-2.626,1,0,0
-0.1594,-0.0139,1.0388,-2.2443,-1.7481,-3.2443,1,0,0
-0.1609,-0.0229,1.0278,-2.3969,-1.4504,-3.1832,1,0,0
-0.1594,-0.0249,1.0337,-2.1527,-1.7252,-2.458,1,0,0
-0.1577,-0.0222,1.0332,-2.2443,-1.5115,-2.145,1,0,0
-0.1538,-0.0261,1.0396,-2.7405,-1.2214,-1.916,1,0,0
-0.1565,-0.0278,1.0359,-2.7634,-1.1221,-2.1603,1,0,0
-0.156,-0.0352,1.0366,-2.2824,-0.5191,-1.7405,1,0,0
-0.1643,-0.0271,1.0315,-1.626,-0.6031,-1.9542,1,0,0
-0.1523,-0.0183,1.0261,-1.6641,-1.4122,-1.8397,1,0,0
-0.1606,-0.0251,1.0217,-1.0458,-2.313,-2.0611,1,0,0
-0.1443,-0.0264,1.0342,-0.6565,-2.626,-2.2137,1,0,0
-0.136,-0.0349,1.0422,-0.3588,-0.5878,-2.8244,1,0,0
-0.1389,-0.0283,1.0388,0.2214,1.0611,-1.9466,1,0,0
-0.1497,-0.019,1.0269,-0.3435,1.8931,-1.2214,1,0,0
-0.1592,-0.0347,1.0142,-1.2824,1.2061,-1.4198,1,0,0
-0.157,-0.0281,1.0139,-1.6031,1.5344,-1.145,1,0,0
-0.1611,-0.0222,1.0125,-1.3053,0.7176,-1.458,1,0,0
-0.158,-0.0244,1.012,-1.0687,-0.0229,-1.1374,1,0,0
-0.1492,-0.0171,1.0005,-0.6565,-0.3664,-1.2595,1,0,0
-0.1619,-0.0027,1.0083,-0.5802,-1.3435,-0.8397,1,0,0
-0.1494,-0.0073,1.0103,-1.5267,-0.9771,-1.5038,1,0,0
-0.1377,-0.0054,1.0164,-2.0916,-1.0076,-2.0382,1,0,0
-0.1343,-0.0166,1.0183,-1.9771,1.1374,-2.4962,1,0,0
-0.1401,-0.0066,1.0137,-1.9542,1.2977,-2.916,1,0,0
-0.1406,-0.0032,1.0103,-2.6718,0.3969,-3.3969,1,0,0
-0.1208,-0.0085,1.0117,-3.4122,-0.1832,-4.0305,1,0,0
-0.1252,-0.0076,1.0173,-3.313,0.5725,-3.8244,1,0,0
-0.1287,-0.011,1.0137,-3.0229,1.6947,-3.8702,1,0,0
-0.1365,-0.0115,1.0054,-2.916,1.4962,-3.7099,1,0,0
-0.1343,-0.002,0.9949,-2.2443,0.5878,-3.6336,1,0,0
-0.1345,0.0032,0.9968,-2.8244,0.458,-3.4198,1,0,0
-0.1414,-0.0024,1.0012,-3.3588,-0.5954,-3.5496,1,0,0
-0.1401,-0.009,0.9924,-3.855,-1.7405,-3.4122,1,0,0
-0.1387,-0.0146,0.9932,-4.0763,-2.687,-3.2595,1,0,0
-0.1406,-0.0166,1.0017,-3.5344,-3.0916,-2.7939,1,0,0
-0.1431,-0.0256,1.0107,-2.1527,-3.2061,-2.6641,1,0,0
-0.1394,-0.0217,1.0112,-1.4122,-2.9771,-2.0153,1,0,0
-0.1343,-0.0139,1.0142,-1.3511,-2.7405,-1.7405,1,0,0
-0.147,-0.0142,1.0115,-1.8168,-2.2443,-2.0992,1,0,0
-0.1494,-0.0183,1.0127,-2.0992,-2.3893,-2.4427,1,0,0
-0.1521,-0.0227,1.021,-2.1985,-2.916,-2.1908,1,0,0
-0.1589,-0.0234,1.0222,-2.1756,-3.1527,-1.8779,1,0,0
-0.1492,-0.0256,1.031,-2.7328,-3.1527,-2.2519,1,0,0
-0.1572,-0.0254,1.0354,-2.4656,-2.6107,-2.4427,1,0,0
-0.1567,-0.0276,1.0386,-2.4504,-2.3969,-2.2672,1,0,0
-0.1545,-0.0232,1.0386,-2.4046,-1.6947,-1.8244,1,0,0
-0.1558,-0.0266,1.0422,-2.145,-1.374,-1.9924,1,0,0
-0.1538,-0.0217,1.042,-2.145,-0.7099,-2.3893,1,0,0
-0.1528,-0.02,1.0366,-2.4656,-0.5573,-2.6336,1,0,0
-0.1533,-0.0315,1.0364,-3.2137,-0.5954,-1.8092,1,0,0
-0.1416,-0.0293,1.0249,-3.1145,-0.0611,-2.0229,1,0,0
-0.1482,-0.0337,1.0315,-3.0382,0.1603,-2.2672,1,0,0
-0.1453,-0.032,1.0339,-2.7099,0.7939,-2.1298,1,0,0
-0.1414,-0.0242,1.0276,-2.8473,1.0763,-1.8931,1,0,0
-0.1379,-0.0288,1.0293,-3.542,1.5496,-1.8626,1,0,0
-0.1448,-0.0391,1.0266,-2.6947,1.3969,-2.0763,1,0,0
-0.1389,-0.033,1.0217,-2.4733,0.7786,-1.7863,1,0,0
-0.1328,-0.0273,1.0237,-2.3053,1.3817,-1.1603,1,0,0
-0.1387,-0.0298,1.0205,-2.4198,1.9618,-0.9542,1,0,0
-0.1443,-0.0261,1.0056,-2.9008,1.5267,-0.7405,1,0,0
-0.146,-0.0276,1.0046,-3.7099,0.9466,-1.0305,1,0,0
-0.1506,-0.033,1.0037,-3.1756,0.3893,-0.8626,1,0,0
-0.1526,-0.0391,1.0005,-2.1145,-0.542,-0.6031,1,0,0
-0.1511,-0.0366,1.0017,-0.9084,-0.7252,0.0076,1,0,0
-0.1543,-0.0225,1.0005,0.0,-0.6336,0.1298,1,0,0
-0.156,-0.0112,1.001,-0.1756,-1.0534,0.313,1,0,0
-0.1582,-0.0083,1.0061,-0.5573,-1.1985,-0.0076,1,0,0
-0.1545,-0.001,1.0076,-1.9389,-2.1374,-0.2061,1,0,0
-0.1472,-0.0063,1.0173,-2.9237,-2.0382,-0.8702,1,0,0
-0.1479,-0.0059,1.019,-3.4351,-1.5878,-1.3893,1,0,0
-0.1484,-0.011,1.0181,-4.1374,-0.7481,-2.4809,1,0,0
-0.1477,-0.0295,1.021,-4.4504,-1.0687,-2.1908,1,0,0
-0.1438,-0.042,1.0193,-3.2901,-1.0076,-2.4122,1,0,0
-0.1372,-0.0371,1.02,-2.1145,-0.5496,-2.3893,1,0,0
-0.1396,-0.0356,1.0237,-1.8702,-0.3206,-2.1069,1,0,0
-0.1387,-0.0344,1.0164,-2.7252,-0.1908,-2.0,1,0,0
-0.147,-0.0381,1.0115,-3.7557,-0.4198,-1.9389,1,0,0
-0.1494,-0.0464,1.0044,-4.2748,-1.145,-1.0229,1,0,0
-0.1521,-0.0469,1.0127,-3.374,-1.4198,-0.4122,1,0,0
-0.1506,-0.0474,1.0103,-2.9237,-1.9389,-0.0916,1,0,0
-0.1494,-0.0459,1.0208,-1.6489,-1.6641,0.2061,1,0,0
-0.1477,-0.0396,1.0203,-0.7405,-1.5954,0.1832,1,0,0
-0.1497,-0.0293,1.0247,-0.5038,-1.2977,-0.2137,1,0,0
-0.1489,-0.0244,1.0371,-1.3969,-0.5115,-0.1374,1,0,0
-0.1504,-0.0154,1.0261,-2.1069,-0.3206,-0.5802,1,0,0
-0.1584,-0.0046,1.0203,-3.5954,-1.3893,-0.4122,1,0,0
-0.145,-0.0134,1.0244,-4.8397,-0.626,-1.5954,1,0,0
-0.1353,-0.0251,1.0337,-4.5191,0.1756,-2.1527,1,0,0
-0.1389,-0.0215,1.03,-3.6031,0.1832,-2.542,1,0,0
-0.1467,-0.0229,1.0212,-2.9771,-0.2061,-2.6183,1,0,0
-0.1401,-0.022,1.0266,-2.7786,-0.2366,-3.0076,1,0,0
-0.1404,-0.0166,1.0205,-3.4046,0.3588,-3.4198,1,0,0
-0.1421,-0.019,1.0142,-3.8092,0.6718,-3.2595,1,0,0
-0.1484,-0.0303,1.0107,-4.0382,-0.0382,-3.0382,1,0,0
-0.1504,-0.0413,1.0029,-2.9237,-0.8015,-2.626,1,0,0
-0.1528,-0.0337,1.0056,-2.1832,-1.6641,-2.7176,1,0,0
-0.1599,-0.0459,1.0039,-0.8092,-2.6183,-1.8626,1,0,0
-0.1582,-0.042,1.011,-0.1985,-3.687,-1.3588,1,0,0
-0.1567,-0.0334,1.0215,0.2519,-3.8168,-1.145,1,0,0
-0.1448,-0.0259,1.0303,-0.1298,-2.9618,-1.8397,1,0,0
-0.1477,-0.0205,1.0408,-1.2214,-2.145,-1.771,1,0,0
-0.1384,-0.012,1.0388,-2.7252,-1.0992,-1.916,1,0,0
-0.116,-0.0061,1.0364,-4.2672,1.7328,-3.7557,1,0,0
-0.1213,-0.009,1.0356,-5.3435,3.7252,-5.6031,1,0,0
-0.1311,-0.0212,1.0276,-5.5496,4.3511,-6.2977,1,0,0
-0.1252,-0.0117,1.0193,-6.3664,4.687,-6.4885,1,0,0
-0.1211,-0.0139,1.0125,-6.9389,5.7176,-7.4427,1,0,0
-0.1235,-0.0161,1.0,-7.8931,6.4962,-8.2366,1,0,0
-0.1238,-0.0122,0.9917,-8.9008,6.7481,-8.5267,1,0,0
-0.127,-0.0259,0.9832,-9.0992,5.5725,-8.8931,1,0,0
-0.1228,-0.0242,0.9729,-9.2137,4.9847,-9.4885,1,0,0
-0.1353,-0.0281,0.9617,-9.2672,3.7405,-9.1145,1,0,0
-0.135,-0.0459,0.96,-8.771,1.9618,-9.0229,1,0,0
-0.1335,-0.0491,0.9692,-7.2901,1.145,-8.8779,1,0,0
-0.1399,-0.0417,0.958,-6.1221,1.1908,-8.1756,1,0,0
-0.1526,-0.0415,0.9551,-5.7557,0.2748,-8.3053,1,0,0
-0.1545,-0.0339,0.9548,-6.1679,-1.7405,-8.2061,1,0,0
-0.1536,-0.0532,0.9714,-5.5649,-2.6718,-8.9313,1,0,0
-0.1592,-0.0432,0.9744,-4.626,-3.0992,-10.0763,1,0,0
-0.167,-0.0271,0.9871,-4.5344,-3.1832,-12.4427,1,0,0
-0.1714,-0.0217,0.9978,-4.9847,-3.4351,-14.5954,1,0,0
-0.1602,-0.0254,1.0168,-4.9695,-0.8473,-17.9542,1,0,0
-0.1594,-0.0444,1.019,-4.374,1.1908,-20.7786,1,0,0
-0.144,-0.0593,1.0237,-2.9618,4.7405,-22.9008,1,0,0
-0.1555,-0.0691,1.0334,-0.8931,7.9389,-23.9389,1,0,0
-0.1567,-0.0598,1.022,1.0534,10.4733,-25.1527,1,0,0
-0.1445,-0.0315,1.0278,1.0458,11.7939,-25.2824,1,0,0
-0.1465,-0.0488,1.0286,-1.2672,11.2061,-22.7176,1,0,0
-0.1555,-0.0342,1.0215,-3.6107,10.145,-19.8855,1,0,0
-0.1614,-0.0342,1.0156,-7.0458,9.374,-18.2595,1,0,0
-0.167,-0.0544,1.0061,-9.7634,7.5267,-16.6641,1,0,0
-0.1636,-0.0654,1.0027,-10.0458,5.9313,-15.1527,1,0,0
-0.1582,-0.0776,1.0149,-10.084,4.2977,-13.6489,1,0,0
-0.1602,-0.094,1.0146,-9.0382,2.2366,-10.9084,1,0,0
-0.1526,-0.0791,1.0098,-9.4504,1.0305,-8.6031,1,0,0
-0.1494,-0.0676,1.0195,-10.4656,1.1298,-8.0229,1,0,0
-0.1594,-0.0535,1.0198,-11.2137,1.2366,-8.8244,1,0,0
-0.1501,-0.0552,1.0415,-12.7176,0.8244,-9.687,1,0,0
-0.1516,-0.052,1.0291,-13.0916,-0.3588,-11.0153,1,0,0
-0.1465,-0.0466,1.0222,-14.9542,-0.3588,-13.0153,1,0,0
-0.1548,-0.051,1.0139,-17.8626,0.3588,-15.1145,1,0,0
-0.1626,-0.0596,1.0073,-20.7405,1.313,-16.6183,1,0,0
-0.167,-0.0923,0.9971,-22.5725,1.4733,-17.145,1,0,0
-0.1709,-0.0632,0.9915,-26.2137,0.084,-17.9542,1,0,0
-0.1675,-0.0955,0.9915,-29.6412,-1.9313,-17.9771,1,0,0
-0.1555,-0.1147,0.9958,-29.9466,-2.6794,-18.6947,1,0,0
-0.1455,-0.1289,0.9897,-28.7634,-1.5725,-19.9237,1,0,0
-0.1521,-0.1555,0.9648,-28.2443,0.9695,-20.8397,1,0,0
-0.1802,-0.2031,0.9478,-26.4809,1.1145,-20.687,1,0,0
-0.1997,-0.2212,0.9326,-23.626,-1.1832,-17.5496,1,0,0
-0.2061,-0.2271,0.9426,-20.4198,-5.4962,-13.2672,1,0,0
-0.198,-0.2031,0.9661,-17.542,-7.9313,-9.0,1,0,0
-0.1843,-0.1882,0.9663,-14.9008,-8.9695,-7.2977,1,0,0
-0.1721,-0.1711,0.9775,-13.2214,-9.3664,-7.0382,1,0,0
-0.1587,-0.1597,0.9827,-13.0611,-9.7481,-7.145,1,0,0
-0.1501,-0.1587,0.9829,-13.9237,-10.1832,-7.5115,1,0,0
