ax,ay,az,gx,gy,gz,left_click,right_click
-0.198,0.0127,1.0105,-3.0458,-0.6794,4.8092,0,0,0
-0.189,0.0334,1.0139,-2.7252,0.374,5.4427,0,0,0
-0.1768,0.0662,1.0105,-1.6336,0.4351,4.8855,0,0,0
-0.1682,0.0806,1.0098,-0.8244,-0.2061,3.0611,0,0,0
-0.1592,0.0769,1.0071,-0.1679,-0.9389,0.8626,0,0,0
-0.157,0.0737,0.9934,-1.0458,-1.0916,-0.5496,0,0,0
-0.146,0.0698,1.0005,-3.2366,-0.8244,-0.5725,0,0,0
-0.1445,0.0647,1.011,-5.8397,0.6565,-1.1603,0,0,0
-0.1479,0.0569,1.0222,-7.626,2.2061,-2.2061,0,0,0
-0.1472,0.0432,1.0225,-8.1069,2.4275,-3.1069,0,0,0
-0.146,0.0356,1.0193,-7.8779,1.7557,-3.9313,0,0,0
-0.1548,0.0308,1.0208,-7.229,0.9389,-5.5954,0,0,0
-0.1677,0.0068,1.0361,-6.0687,1.1908,-6.7099,0,0,0
-0.1709,-0.0188,1.0325,-4.6641,1.0992,-6.5878,0,0,0
-0.1768,-0.0305,1.0281,-3.7939,0.9389,-4.5802,0,0,0
-0.179,-0.0332,1.0349,-3.1145,1.5649,-3.0382,0,0,0
-0.1807,-0.0308,1.0332,-3.3511,2.5191,-1.7786,0,0,0
-0.1907,-0.0273,1.0273,-2.5191,3.0916,-0.8779,0,0,0
-0.1904,-0.0183,1.0017,-1.5649,2.7405,-0.6107,0,0,0
-0.1958,-0.0122,1.0022,-0.9466,0.9313,0.0687,0,0,0
-0.1924,0.0029,0.9995,0.3893,-0.3359,-0.0916,0,0,0
-0.1973,-0.0061,0.9993,1.3206,-1.6107,-0.3893,0,0,0
-0.1929,-0.002,1.001,1.5649,-1.8702,0.5725,0,0,0
-0.1794,-0.0007,1.0132,0.2137,-2.2366,1.9695,0,0,0
-0.1812,0.0154,1.0308,-0.3817,-1.7939,2.9008,0,0,0
-0.1831,0.0293,1.0259,-0.7863,-1.7863,2.8931,0,0,0
-0.1721,0.0437,1.0369,-0.5191,-0.9924,1.9008,0,0,0
-0.1729,0.05,1.0503,0.1374,-0.2443,0.771,0,0,0
-0.1653,0.0427,1.0366,0.916,0.6336,-0.7099,0,0,0
-0.1702,0.0339,1.0327,1.3435,0.7252,-1.7557,0,0,0
-0.1707,0.0303,1.0234,1.687,0.9618,-1.2748,0,0,0
-0.1802,0.0271,1.0142,1.5115,0.6031,-1.0153,0,0,0
-0.1819,0.0269,1.0112,1.145,0.7786,-0.8931,0,0,0
-0.1777,0.022,1.0168,0.9389,1.0382,-0.6412,0,0,0
-0.1877,0.0227,1.0,1.4504,0.9389,-1.229,0,0,0
-0.1841,0.0181,0.9927,1.1145,-0.0076,-0.5267,0,0,0
-0.1846,0.02,1.0007,0.9695,-0.3359,-0.2061,0,0,0
-0.1787,0.0229,1.0068,0.0458,-0.5267,-0.1756,0,0,0
-0.1729,0.0264,1.0056,-0.5954,0.1679,-0.0076,0,0,0
-0.1741,0.04,0.9949,-0.8168,1.0763,-0.2977,0,0,0
-0.1814,0.0552,0.9917,-0.6641,1.0076,-1.0458,0,0,0
-0.1775,0.0552,0.9785,-0.3817,0.5802,-1.9695,0,0,0
-0.1819,0.0547,0.9709,-0.626,-0.3053,-2.6183,0,0,0
-0.1868,0.0457,0.9683,-1.0229,-1.8168,-2.8702,0,0,0
-0.1914,0.0332,0.9705,-1.0687,-2.6718,-2.5725,0,0,0
-0.1885,0.0334,0.9817,-1.6794,-3.7328,-1.2672,0,0,0
-0.1765,0.0359,0.9993,-2.0,-4.0305,0.5038,0,0,0
-0.1624,0.0498,1.0234,-2.9237,-2.5573,0.5267,0,0,0
-0.1597,0.0547,1.0283,-3.6947,-1.0,-0.5038,0,0,0
-0.1604,0.0603,1.0166,-4.8626,0.9695,-2.2672,0,0,0
-0.1641,0.0447,1.0154,-5.7405,0.8931,-3.6031,0,0,0
-0.1624,0.0342,1.0186,-5.8168,0.145,-4.1603,0,0,0
-0.1731,0.0317,1.0247,-5.1145,-0.6336,-4.7023,0,0,0
-0.1799,0.0107,1.032,-4.8092,-0.687,-5.0305,0,0,0
-0.1851,-0.0059,1.0193,-4.5649,-0.2214,-3.7557,0,0,0
-0.1851,-0.0107,1.0251,-5.4275,-0.4656,-1.4122,0,0,0
-0.1777,-0.0037,1.0298,-6.0382,-0.2748,0.374,0,0,0
-0.1743,0.021,1.0403,-6.7634,-0.2443,0.2595,0,0,0
-0.1714,0.0098,1.0442,-5.5878,-0.6565,-1.3893,0,0,0
-0.1826,0.0122,1.0566,-5.4427,0.5038,-2.9008,0,0,0
-0.1875,-0.0178,1.0532,-3.7023,1.2595,-2.8473,0,0,0
-0.1956,-0.0261,1.0315,-2.4046,1.5496,-1.8473,0,0,0
-0.1995,-0.02,1.0188,-1.7557,0.2443,-0.2824,0,0,0
-0.1926,-0.02,1.0193,-1.313,-0.5573,0.7481,0,0,0
-0.1899,-0.0063,1.0166,-0.8397,-0.8931,1.229,0,0,0
-0.1865,0.0042,1.0044,-0.3206,-1.687,1.2366,0,0,0
-0.1809,0.0171,1.0012,-0.3588,-2.1756,0.9924,0,0,0
-0.1838,0.0151,0.9941,-0.5038,-2.229,0.0382,0,0,0
-0.1865,0.0103,0.9976,-1.0,-2.0153,0.2748,0,0,0
-0.1846,0.0051,0.9907,-2.0382,-1.4198,1.2672,0,0,0
-0.1855,0.0122,0.9885,-2.2595,-1.8168,2.9924,0,0,0
-0.1841,0.021,0.9998,-2.5496,-3.1069,3.7557,0,0,0
-0.1819,0.0239,1.0015,-1.4809,-4.0916,4.855,0,0,0
-0.1716,0.0298,1.01,-1.7939,-5.6336,5.5649,0,0,0
-0.1638,0.0342,1.0278,-2.8244,-5.7481,5.626,0,0,0
-0.1675,0.022,1.0449,-4.5649,-4.4733,5.6718,0,0,0
-0.1599,0.0166,1.054,-5.8779,-2.9847,6.4275,0,0,0
-0.1667,0.0027,1.0554,-7.0992,-0.0763,8.4885,0,0,0
-0.1643,-0.0393,1.0549,-8.6718,1.5344,10.2137,0,0,0
-0.1978,-0.0732,1.0176,-8.2748,1.458,13.8702,0,0,0
-0.2236,-0.1094,0.9849,-6.2366,-1.1603,21.626,0,0,0
-0.1975,-0.0999,0.9661,-5.7481,-5.4046,30.3664,0,0,0
-0.188,-0.0823,0.9885,-5.3664,-8.1221,35.5344,0,0,0
-0.2236,-0.1375,1.03,-10.0687,-8.8321,38.458,0,0,0
-0.2449,-0.1853,1.0203,-10.7939,-9.3664,46.4198,0,0,0
-0.2129,-0.1292,1.0491,-11.229,-10.5725,58.4122,0,0,0
-0.1414,-0.0154,1.1101,-12.3511,-6.7099,65.5878,0,0,0
-0.1189,0.176,1.166,-13.8321,0.8702,59.313,0,0,0
-0.062,0.1787,1.1689,-10.4198,11.1145,44.4809,0,0,0
-0.1431,0.114,1.0508,-20.8168,17.0,29.916,0,0,0
-0.1882,0.0542,1.0625,-20.4198,17.3053,23.7099,0,0,0
-0.178,-0.0332,1.0383,-15.7863,16.2214,23.8321,0,0,0
-0.197,-0.0344,1.0156,-7.5954,13.3053,28.5114,0,0,0
-0.1777,0.0366,0.9956,-2.7634,12.4122,29.2672,0,0,0
-0.1448,0.0901,0.9539,-1.5573,10.4046,25.8244,0,0,0
-0.1348,0.1448,0.9375,-2.7786,7.2061,18.3588,0,0,0
-0.1399,0.1472,0.9519,-3.626,4.1221,8.4504,0,0,0
-0.1489,0.1426,0.9656,-4.1145,2.3588,0.1527,0,0,0
-0.1519,0.1089,0.999,-3.9618,1.4427,-4.5267,0,0,0
-0.1545,0.0974,1.0146,-2.8092,3.3817,-7.6183,0,0,0
-0.1523,0.0808,0.9951,-1.2977,5.1145,-9.9313,0,0,0
-0.1531,0.0559,0.9861,-1.6794,5.6031,-12.1908,0,0,0
-0.1902,0.0142,0.9619,-1.4198,4.0229,-13.3893,0,0,0
-0.1965,-0.0024,0.9602,-0.7481,1.7176,-11.542,0,0,0
-0.1841,-0.0054,0.9883,-1.1298,0.1527,-8.084,0,0,0
-0.1807,0.022,1.0276,-0.1679,1.9389,-6.7252,0,0,0
-0.1719,0.0461,1.0322,1.1298,3.8092,-7.8321,0,0,0
-0.1726,0.0515,1.0232,1.5344,5.9771,-10.6641,0,0,0
-0.1816,0.0513,1.0032,2.1679,6.4885,-13.2824,0,0,0
-0.1782,0.0522,1.0127,2.5802,6.916,-14.9542,0,0,0
-0.178,0.0525,1.0352,4.1298,8.4122,-17.5496,0,0,0
-0.1833,0.0422,1.0361,6.2672,10.4275,-19.7481,0,0,0
-0.1951,0.0249,1.0156,7.6718,10.5573,-21.0687,0,0,0
-0.1948,0.0139,0.9951,7.313,10.6412,-20.542,0,0,0
-0.2039,-0.0042,1.0063,4.6641,10.687,-20.4656,0,0,0
-0.2178,-0.0129,1.0022,3.4122,10.7863,-19.145,0,0,0
-0.2156,-0.0264,0.9878,2.229,9.5038,-17.3282,0,0,0
-0.2131,-0.0149,0.9927,1.5038,7.8855,-15.7939,0,0,0
-0.218,-0.0005,0.9934,1.0992,6.2366,-15.8321,0,0,0
-0.2112,0.0256,1.0,2.1298,5.7099,-16.7328,0,0,0
-0.2053,0.0342,1.0022,2.1298,5.6565,-18.7023,0,0,0
-0.2219,0.0049,0.9856,1.7252,5.5649,-19.8931,0,0,0
-0.24,-0.0286,0.9509,1.0611,3.1908,-18.2366,0,0,0
-0.2451,-0.0334,0.9556,-0.2672,-0.1069,-14.2519,0,0,0
-0.2417,-0.0203,0.9712,-1.7252,-3.0,-10.145,0,0,0
-0.2219,-0.0156,1.0171,-1.4122,-2.9924,-8.0305,0,0,0
-0.2151,0.0186,1.0156,-0.229,-2.4275,-7.7481,0,0,0
-0.2231,0.0129,1.0261,0.4275,-2.8626,-8.9542,0,0,0
-0.2297,-0.0007,0.9993,1.7023,-2.3588,-9.3282,0,0,0
-0.2302,-0.0149,0.9963,2.0763,-2.8779,-7.9695,0,0,0
-0.2263,-0.0303,0.9976,1.8244,-2.8626,-5.6641,0,0,0
-0.2141,-0.0244,0.9917,2.1756,-3.855,-2.7252,0,0,0
-0.2056,0.0156,0.9922,2.2061,-4.1832,-1.626,0,0,0
-0.1885,0.0483,0.9858,2.0534,-4.4351,-2.7328,0,0,0
-0.1868,0.0581,0.9871,2.2443,-5.1221,-6.374,0,0,0
-0.2092,0.0229,0.991,1.8321,-6.3435,-9.7557,0,0,0
-0.2102,0.0042,0.9954,3.3817,-7.8244,-9.7939,0,0,0
-0.1995,-0.0137,1.0188,3.0534,-8.3511,-7.2366,0,0,0
-0.2192,-0.0103,1.0293,3.8931,-5.8702,-4.5954,0,0,0
-0.2056,-0.0171,1.0107,4.0229,-4.1374,-2.3435,0,0,0
-0.199,-0.0029,0.9927,3.0992,-4.0229,-0.9084,0,0,0
-0.2029,0.0029,0.9846,1.7176,-5.4351,-0.6718,0,0,0
-0.2009,0.0039,1.0022,1.4962,-7.0916,-1.0153,0,0,0
-0.1978,0.0083,1.0151,0.6641,-8.1527,-0.771,0,0,0
-0.1951,0.0166,1.031,-0.8855,-8.4427,-0.9313,0,0,0
-0.2041,0.0088,1.0508,-1.8321,-6.5038,-1.6794,0,0,0
-0.2114,-0.01,1.0586,-1.6489,-4.4198,-2.0382,0,0,0
-0.2083,-0.0173,1.0459,-3.0382,-2.3053,-1.229,0,0,0
-0.2131,-0.0237,1.051,-1.5496,-1.2977,0.3664,0,0,0
-0.2126,-0.0176,1.0354,0.5496,-0.7252,1.1985,0,0,0
-0.21,-0.0107,1.0168,1.9389,-1.3511,2.1069,0,0,0
-0.2075,-0.0027,1.0193,2.458,-1.626,2.687,0,0,0
-0.2046,0.0105,1.0234,1.7023,-1.8473,2.9695,0,0,0
-0.2004,0.0176,1.0247,0.8321,-0.6183,2.916,0,0,0
-0.1975,0.0254,1.0198,-0.4427,-0.0687,2.542,0,0,0
-0.198,0.0422,1.0229,-1.8015,0.5038,2.2366,0,0,0
-0.1902,0.0457,1.0347,-1.9695,1.7023,0.3435,0,0,0
-0.1943,0.0393,1.0354,-0.916,2.5496,-1.0382,0,0,0
-0.2039,0.0393,1.009,0.1832,3.0687,-1.4275,0,0,0
-0.1995,0.0276,0.9961,0.8015,3.1756,-1.313,0,0,0
-0.2078,0.019,0.9897,1.313,2.8626,-1.5115,0,0,0
-0.2073,0.0156,0.9714,1.5573,1.9847,-0.229,0,0,0
-0.196,0.0244,0.9761,0.5115,0.6718,0.8702,0,0,0
-0.198,0.0361,0.9829,-0.542,0.2748,1.0305,0,0,0
-0.1956,0.0481,0.9839,-1.5191,0.5573,0.1145,0,0,0
-0.1987,0.0417,0.9856,-2.2519,0.2137,-0.8092,0,0,0
-0.209,0.0322,0.9758,-2.5573,-0.3053,-1.145,0,0,0
-0.2036,0.0217,0.9773,-2.7481,-1.2977,-0.2672,0,0,0
-0.2041,0.0352,0.9854,-1.7557,-2.0534,0.2672,0,0,0
-0.1943,0.0498,0.9883,-1.0458,-2.687,0.6718,0,0,0
-0.1941,0.0586,1.0098,-0.4504,-2.7557,-0.6183,0,0,0
-0.2,0.052,1.0054,0.4733,-2.3588,-2.1985,0,0,0
-0.2036,0.041,0.9978,0.8931,-3.6183,-2.6412,0,0,0
-0.2014,0.0371,1.0081,0.9847,-4.7939,-1.9924,0,0,0
-0.1995,0.0403,1.033,0.4809,-4.1679,-1.5191,0,0,0
-0.1946,0.0427,1.0466,0.1069,-2.2977,-1.1679,0,0,0
-0.186,0.0469,1.0481,-0.2595,-0.4962,-1.7252,0,0,0
-0.1877,0.0552,1.0339,-0.626,0.6107,-2.3511,0,0,0
-0.1919,0.0537,1.0229,-0.5954,0.9466,-3.8168,0,0,0
-0.1885,0.0498,1.0076,0.0611,0.687,-4.8168,0,0,0
-0.1938,0.0435,1.0142,0.7557,0.4656,-5.4275,0,0,0
-0.197,0.0347,1.0098,0.7939,0.1832,-5.7328,0,0,0
-0.2014,0.02,1.0088,0.1985,-0.145,-5.4198,0,0,0
-0.2068,0.0134,1.0022,-0.5725,-0.1908,-4.3817,0,0,0
-0.2063,0.0081,1.0039,-1.6107,-0.7557,-2.7023,0,0,0
-0.1997,0.0149,1.0173,-2.1756,-1.0076,-1.8779,0,0,0
-0.1934,0.0244,1.0239,-2.3893,-0.0992,-2.0153,0,0,0
-0.1899,0.03,1.0212,-1.3664,0.7328,-2.7863,0,0,0
-0.1904,0.0222,1.0178,-2.1145,0.8702,-3.7099,0,0,0
-0.2026,0.0059,1.0222,-2.6107,1.1756,-4.1298,0,0,0
-0.2109,-0.0159,1.0066,-2.6641,1.374,-2.8015,0,0,0
-0.2119,-0.0281,1.002,-2.8702,1.145,-0.0305,0,0,0
-0.2073,-0.0088,1.0071,-2.9313,0.8931,2.2977,0,0,0
-0.2046,0.0139,1.0105,-2.6489,1.4962,3.1221,0,0,0
-0.1914,0.0254,1.0125,-2.8244,2.1985,2.7099,0,0,0
-0.1895,0.0408,0.9895,-2.9313,2.0382,1.4656,0,0,0
-0.1868,0.0469,0.988,-3.6794,0.855,0.0611,0,0,0
-0.1946,0.0457,0.9988,-3.8015,0.626,-1.4198,0,0,0
-0.1997,0.0244,1.0054,-3.2901,0.2672,-1.9924,0,0,0
-0.2068,0.021,1.0002,-2.9542,0.0305,-1.6641,0,0,0
-0.2102,0.0078,0.9897,-2.7099,-0.2824,0.1527,0,0,0
-0.2146,0.0156,0.9941,-2.4809,-0.3359,1.7176,0,0,0
-0.2051,0.0232,0.9851,-2.1832,-0.687,2.6107,0,0,0
-0.2,0.0432,0.9807,-2.8473,-1.7939,3.0534,0,0,0
-0.1919,0.0605,0.9897,-4.0305,-1.6336,1.1374,0,0,0
-0.1948,0.0554,1.0076,-4.2061,-2.0611,-1.0992,0,0,0
-0.2017,0.0452,1.0029,-3.6718,-1.9084,-2.8855,0,0,0
-0.2078,0.0127,1.0151,-2.8702,-2.9008,-3.3969,0,0,0
-0.2234,-0.011,1.0056,-1.5038,-3.687,-1.6947,0,0,0
-0.2168,-0.0154,1.0125,-0.6794,-4.3893,1.6336,0,0,0
-0.2065,0.0117,1.0273,-1.4275,-4.0687,4.0305,0,0,0
-0.2007,0.0344,1.0503,-2.1603,-1.6107,3.7786,0,0,0
-0.196,0.0496,1.0486,-3.0305,0.4733,1.6794,0,0,0
-0.1924,0.0425,1.0286,-4.0534,1.6107,-0.1221,0,0,0
-0.1992,0.0283,1.0195,-4.1679,1.9237,-0.7176,0,0,0
-0.2139,0.0115,1.009,-3.0076,1.1908,-0.9313,0,0,0
-0.2144,-0.0073,0.9907,-1.855,-0.229,1.1527,0,0,0
-0.2139,-0.0042,1.002,-1.9008,-1.1069,3.6794,0,0,0
-0.209,0.0076,1.0107,-2.5191,-0.0611,6.458,0,0,0
-0.1965,0.0132,1.0125,-4.5496,0.9771,7.8244,0,0,0
-0.1831,0.0283,1.0229,-6.3435,3.0992,8.2061,0,0,0
-0.1919,0.04,1.0217,-7.2061,3.4962,7.2366,0,0,0
-0.1887,0.0142,1.0122,-7.8855,3.6641,6.0534,0,0,0
-0.2075,0.0039,1.0142,-6.6641,3.3282,6.8015,0,0,0
-0.2031,-0.0024,1.0173,-5.7634,3.0534,8.6412,0,0,0
-0.198,0.0142,1.0227,-4.8321,3.8092,10.3359,0,0,0
-0.1934,0.0381,1.0186,-5.4351,5.084,9.4198,0,0,0
-0.1973,0.0454,1.0095,-6.3817,6.2672,7.3282,0,0,0
-0.2148,0.0149,0.9944,-8.6718,6.687,4.916,0,0,0
-0.2305,-0.0208,0.9875,-10.3053,7.4275,5.9771,0,0,0
-0.2227,-0.061,1.0005,-13.458,6.5649,9.5496,0,0,0
-0.2217,-0.0342,1.0168,-15.4809,7.374,14.0763,0,0,0
-0.2168,-0.0085,1.0234,-17.4885,8.7786,15.5267,0,0,0
-0.2034,0.0093,1.01,-18.7328,9.4962,13.9924,0,0,0
-0.2302,0.0056,1.021,-19.6107,9.5496,12.0687,0,0,0
-0.2307,-0.0024,1.0076,-20.2901,8.7023,12.1832,0,0,0
-0.2214,-0.0134,1.0332,-21.0611,9.4046,13.7023,0,0,0
-0.2144,-0.0066,1.0415,-20.9008,12.2977,14.626,0,0,0
-0.2156,0.0239,1.0364,-20.6412,14.3511,14.0382,0,0,0
-0.2039,0.0356,1.0093,-18.6336,14.9542,12.1145,0,0,0
-0.2258,0.0095,0.9995,-15.1145,11.9695,8.2748,0,0,0
-0.249,-0.012,0.9866,-9.7481,8.3664,7.0534,0,0,0
-0.2405,-0.03,0.9946,-5.7405,5.1756,8.7863,0,0,0
-0.2395,-0.0242,1.0229,-3.9695,5.3969,10.9847,0,0,0
-0.2363,0.0107,1.0234,-1.9008,8.0153,11.5496,0,0,0
-0.2251,0.0176,1.0227,-3.0,10.1908,10.3969,0,0,0
-0.2285,0.0261,0.9856,-2.7786,10.5725,8.5191,0,0,0
-0.2361,0.0273,0.96,-3.3893,7.9695,7.0687,0,0,0
-0.2241,0.032,0.9766,-3.1603,5.9924,5.1756,0,0,0
-0.2268,0.0264,0.9919,-4.6718,6.0763,2.6107,0,0,0
-0.2395,0.0098,0.9778,-4.5115,6.145,1.3359,0,0,0
-0.2427,0.0012,0.9683,-5.1298,5.374,1.626,0,0,0
-0.2349,-0.0063,0.9592,-4.5802,3.4809,2.313,0,0,0
-0.2383,0.0125,0.9717,-2.9313,1.3206,1.8626,0,0,0
-0.248,0.0027,0.9727,-1.1298,-0.8321,0.1679,0,0,0
-0.2432,-0.0056,0.9856,-0.5573,-1.5878,-0.2672,0,0,0
-0.2473,-0.0156,1.002,-0.6565,-1.3664,0.7176,0,0,0
-0.2495,-0.0183,1.0166,-2.4046,0.3588,2.1069,0,0,0
-0.2415,-0.0063,1.0195,-2.9466,2.7786,3.1527,0,0,0
-0.2341,0.0122,1.0066,-2.9618,4.313,2.2519,0,0,0
-0.2441,0.0049,0.9795,-2.1374,3.2519,0.0076,0,0,0
-0.259,-0.0144,0.9795,-2.3435,1.8168,-1.3435,0,0,0
-0.2576,-0.0369,0.9763,-1.6718,-0.084,-0.3817,0,0,0
-0.2534,-0.0332,0.9937,-2.9695,-0.3053,1.7634,0,0,0
-0.2588,-0.0244,1.0061,-3.6183,1.3969,3.0153,0,0,0
-0.2463,-0.0164,1.0112,-4.5725,3.5191,3.4656,0,0,0
-0.2483,-0.0117,0.9973,-6.0229,4.7786,3.1298,0,0,0
-0.2644,-0.022,0.9878,-5.5496,4.229,2.8321,0,0,0
-0.2539,-0.0183,0.9741,-5.4351,2.5038,3.4198,0,0,0
-0.2373,-0.0061,0.9841,-4.5191,-0.0229,3.5954,0,0,0
-0.2441,0.0098,0.9995,-2.6489,-1.4275,1.4122,0,0,0
-0.2432,0.0085,0.9993,0.2595,-2.6489,-0.7939,0,0,0
-0.2412,-0.0005,1.0071,3.313,-4.1908,-3.0382,0,0,0
-0.2488,-0.0024,0.9956,6.4885,-6.2977,-4.3282,0,0,0
-0.251,-0.0183,0.9993,9.084,-9.1756,-4.4275,0,0,0
-0.2522,-0.0164,0.9929,10.6947,-11.3359,-4.2824,0,0,0
-0.2566,-0.0186,0.9868,13.2061,-13.6794,-3.0992,0,0,0
-0.2549,-0.0081,0.9988,12.4351,-14.4962,-2.1756,0,0,0
-0.2485,0.0049,1.0315,11.3893,-13.1908,-2.0763,0,0,0
-0.24,0.0085,1.0425,9.4198,-9.5115,-3.1908,0,0,0
-0.2349,0.0095,1.0391,7.084,-4.9695,-3.6947,0,0,0
-0.2456,0.0071,1.0278,4.5115,-1.3435,-4.1679,0,0,0
-0.2561,-0.0186,1.0066,2.8168,0.7405,-3.3969,0,0,0
-0.2632,-0.0261,0.9858,1.9771,1.3282,-1.4656,0,0,0
-0.2642,-0.0356,0.9695,1.4351,0.6947,0.8702,0,0,0
-0.261,-0.0334,0.9753,0.687,0.1145,3.2748,0,0,0
-0.2468,-0.0105,0.9902,0.1374,0.8779,4.4122,0,0,0
-0.2361,0.0144,0.9949,0.1603,1.1832,4.6947,0,0,0
-0.2297,0.0339,0.9832,-0.229,1.3511,3.7939,0,0,0
-0.2251,0.0396,0.9746,0.5191,0.0305,1.8092,0,0,0
-0.2432,0.0288,0.9629,1.9847,-1.7481,-0.1374,0,0,0
-0.2483,0.021,0.969,4.5802,-3.5878,-1.0153,0,0,0
-0.2439,0.0149,0.9724,6.5191,-6.1679,-0.2443,0,0,0
-0.2244,0.0217,0.9905,7.5802,-6.9466,0.5267,0,0,0
-0.2253,0.033,0.9973,9.0611,-5.6412,0.3664,0,0,0
-0.2139,0.0535,0.9668,9.5573,-5.8473,-0.7328,0,0,0
-0.2126,0.061,0.9629,8.4962,-7.2672,-2.4351,0,0,0
-0.2246,0.0583,0.9653,8.145,-9.7481,-4.7481,0,0,0
-0.2151,0.0505,0.9417,7.145,-12.1374,-5.8855,0,0,0
-0.2224,0.0422,0.9475,6.0229,-15.0992,-6.6031,0,0,0
-0.2134,0.0466,0.9407,7.3893,-19.3511,-7.5725,0,0,0
-0.2271,0.0276,0.98,7.8855,-24.6107,-10.1145,0,0,0
-0.2324,0.0024,1.0276,11.3817,-27.2366,-10.5038,0,0,0
-0.1987,-0.0144,1.0376,11.4885,-26.9237,-7.6641,0,0,0
-0.1802,0.02,1.0549,7.542,-22.6489,-5.084,0,0,0
-0.178,0.0554,1.0676,4.4198,-17.1069,-6.0229,0,0,0
-0.2068,0.0488,1.0662,2.6183,-12.3969,-9.4351,0,0,0
-0.2227,0.0105,1.03,2.6183,-11.5267,-10.5267,0,0,0
-0.2285,-0.0313,1.0295,2.5496,-11.6947,-7.8321,0,0,0
-0.229,-0.0471,1.0381,1.1985,-10.2901,-3.1756,0,0,0
-0.2273,-0.0444,1.0527,2.0611,-6.8397,1.9237,0,0,0
-0.2153,-0.0251,1.0588,2.2901,-4.0229,6.4733,0,0,0
-0.2085,0.0134,1.0566,5.4275,-1.3588,8.5878,0,0,0
-0.1829,0.061,1.0359,9.1985,-1.3282,8.0229,0,0,0
-0.1719,0.0869,1.0352,10.8473,-1.2519,4.1298,0,0,0
-0.1658,0.1047,1.0469,12.458,0.1603,-1.855,0,0,0
-0.1812,0.1028,1.042,10.9389,1.084,-6.4275,0,0,0
-0.1929,0.0518,1.0649,12.5573,1.916,-7.626,0,0,0
-0.1997,0.0327,1.0354,13.5649,4.313,-6.229,0,0,0
-0.1643,0.0476,1.0078,10.1145,4.7863,-2.5649,0,0,0
-0.1855,0.0823,1.0159,9.2137,6.687,0.0763,0,0,0
-0.1807,0.1216,1.001,4.9847,7.8702,-0.3664,0,0,0
-0.1733,0.1394,1.0554,2.4885,8.2366,-3.687,0,0,0
-0.1702,0.1284,1.041,2.9084,10.1221,-7.6336,0,0,0
-0.1743,0.1177,1.0122,2.2137,10.6794,-10.1756,0,0,0
-0.2014,0.0759,0.9993,2.5496,10.5344,-10.687,0,0,0
-0.2058,0.0486,0.9778,4.0076,9.0687,-9.1069,0,0,0
-0.2185,0.0259,0.96,6.2061,5.5802,-6.5649,0,0,0
-0.2202,0.033,0.958,8.0916,2.4351,-3.5649,0,0,0
-0.1958,0.0603,0.9636,7.3511,0.6183,-1.7023,0,0,0
-0.1892,0.103,0.9795,2.8473,1.8855,-3.0992,0,0,0
-0.2012,0.0969,0.9929,-1.1374,3.7557,-6.4198,0,0,0
-0.22,0.0862,0.9727,-3.9847,4.9695,-8.8244,0,0,0
-0.219,0.0388,0.9541,-6.4656,3.2901,-7.5649,0,0,0
-0.2151,0.0229,0.988,-7.7863,2.0992,-5.0,0,0,0
-0.218,0.0239,1.0032,-6.0534,1.7786,-2.4962,0,0,0
-0.218,0.0374,0.9878,-4.4198,1.2748,-1.229,0,0,0
-0.2095,0.0574,0.9854,-3.855,0.084,-1.3588,0,0,0
-0.2134,0.0674,0.9993,-4.1908,-1.2901,-2.5344,0,0,0
-0.2173,0.0493,0.9998,-3.4809,-1.458,-3.687,0,0,0
-0.2151,0.0483,1.0022,-3.855,-2.0382,-3.374,0,0,0
-0.218,0.0439,1.0171,-4.7786,-2.0,-2.3817,0,0,0
-0.2156,0.0435,1.0222,-6.2672,-0.6183,-2.0992,0,0,0
-0.2187,0.0447,1.031,-4.8626,0.2366,-1.4885,0,0,0
-0.2222,0.033,1.0227,-2.9924,0.1832,-0.7863,0,0,0
-0.2153,0.0435,1.0076,-1.6794,-1.2137,-0.145,0,0,0
-0.2141,0.0535,1.0186,-0.7863,-0.8626,0.458,0,0,0
-0.2134,0.0569,1.0022,-2.4046,0.3206,-0.2366,0,0,0
-0.2212,0.0483,1.0059,-4.3664,0.7634,0.0153,0,0,0
-0.2336,0.0413,1.0022,-5.4198,0.2748,1.0305,0,0,0
-0.2244,0.0496,1.0149,-5.3282,0.0458,2.5878,0,0,0
-0.2129,0.0632,1.0195,-4.8931,1.2901,2.7634,0,0,0
-0.2075,0.083,1.0122,-4.7252,2.2977,1.458,0,0,0
-0.2124,0.0696,0.998,-4.5038,2.5267,-0.1832,0,0,0
-0.218,0.0557,0.9927,-4.4656,1.2443,-1.1069,0,0,0
-0.231,0.0408,1.0007,-2.7939,0.8015,-0.3511,0,0,0
-0.2168,0.0398,1.0027,-1.3282,-0.1527,1.3588,0,0,0
-0.2227,0.0498,0.9885,-0.5267,0.3206,2.0763,0,0,0
-0.2092,0.0662,0.9658,-1.8473,-1.2977,1.3664,0,0,0
-0.2036,0.0835,0.9917,-3.3359,-1.4962,-0.3588,0,0,0
-0.2097,0.075,1.0127,-4.5267,-1.2366,-2.5115,0,0,0
-0.2129,0.0647,1.0132,-3.8015,0.0229,-3.1679,0,0,0
-0.2224,0.0334,1.0046,-2.6031,-0.3282,-2.687,0,0,0
-0.2209,0.0361,0.9907,-2.1756,-1.5115,-1.0763,0,0,0
-0.2126,0.0403,0.9888,-3.4962,-1.8473,0.1298,0,0,0
-0.218,0.0596,1.009,-3.8092,-1.7176,-0.3206,0,0,0
-0.2246,0.0483,1.0098,-2.0611,-1.458,-0.9084,0,0,0
-0.2148,0.0483,1.0083,-2.1756,-2.2519,-0.626,0,0,0
-0.2202,0.0593,1.0137,-1.8244,-2.0153,-0.2672,0,0,0
-0.2144,0.0701,1.019,-1.3893,-1.0,-1.2595,0,0,0
-0.2122,0.0706,1.0256,-1.2061,0.2824,-2.3359,0,0,0
-0.219,0.0669,1.0234,-0.9771,1.145,-2.6641,0,0,0
-0.2231,0.0449,1.0137,-0.6794,1.4809,-3.1221,0,0,0
-0.2217,0.0374,0.9956,-0.2443,1.855,-1.3893,0,0,0
-0.2166,0.0415,0.9873,-1.8473,1.4275,0.1832,0,0,0
-0.2217,0.061,0.9839,-2.9313,1.2443,0.4962,0,0,0
-0.2227,0.0776,0.9854,-2.855,0.3359,0.0229,0,0,0
-0.2119,0.0754,1.0071,-2.5954,-0.1603,-1.1832,0,0,0
-0.2119,0.053,1.009,-0.626,0.7099,-2.2061,0,0,0
-0.2075,0.0544,0.99,-0.1374,-0.1298,-1.771,0,0,0
-0.2129,0.061,0.9888,-0.8244,-1.0229,-2.2824,0,0,0
-0.2129,0.0481,0.9883,-2.5344,-1.0687,-2.3206,0,0,0
-0.208,0.0444,1.0051,-3.6947,-0.9084,-1.4962,0,0,0
-0.2183,0.041,1.0022,-3.3206,-1.2977,-0.626,0,0,0
-0.2124,0.0459,1.0149,-1.313,-2.0076,0.0,0,0,0
-0.2021,0.0718,1.0068,0.2595,-2.0534,-1.5878,0,0,0
-0.2036,0.073,1.0122,0.2672,-1.9084,-3.7176,0,0,0
-0.2034,0.0442,1.0171,-0.6565,-0.8473,-5.6107,0,0,0
-0.2217,0.0225,1.0061,-1.2519,0.1145,-4.2977,0,0,0
-0.2295,0.0112,1.0037,-2.2366,-0.1603,-1.3282,0,0,0
-0.217,0.0288,1.0208,-2.9695,0.9847,1.3817,0,0,0
-0.21,0.05,1.0122,-4.0,2.0534,1.2061,0,0,0
-0.2102,0.0637,0.9893,-4.4351,1.6718,-0.4198,0,0,0
-0.2141,0.0498,0.9858,-2.7176,0.0382,-1.5954,0,0,0
-0.2246,0.0435,0.9663,0.8092,-1.7099,-2.0153,0,0,0
-0.2202,0.0439,0.9683,1.9084,-2.4427,-1.6336,0,0,0
-0.2146,0.0505,0.9927,0.2901,-2.6565,-0.916,0,0,0
-0.2078,0.0459,0.9937,-2.9542,-2.2366,-0.7023,0,0,0
-0.2141,0.0386,1.0081,-5.9008,-1.8244,0.0534,0,0,0
-0.2173,0.0391,1.0139,-6.4656,-1.1756,1.6718,0,0,0
-0.2065,0.0408,1.0417,-5.458,-1.4275,2.7023,0,0,0
-0.2078,0.0737,1.0396,-1.8855,-0.7786,1.8473,0,0,0
-0.209,0.0852,1.0364,0.3969,-0.5038,-0.4962,0,0,0
-0.2195,0.0671,1.0107,2.0916,0.1069,-3.2443,0,0,0
-0.2341,0.041,0.99,2.6641,-0.2824,-3.5878,0,0,0
-0.2278,0.0188,0.9829,1.4656,-1.0458,-1.2443,0,0,0
-0.2341,0.0247,0.9783,-1.4733,-1.2977,1.084,0,0,0
-0.2253,0.0381,1.0068,-4.6336,-0.7176,2.1679,0,0,0
-0.2217,0.0581,1.0198,-6.5115,0.5573,2.5115,0,0,0
-0.218,0.0698,1.0166,-5.2901,1.1603,1.1908,0,0,0
-0.2158,0.0659,1.0085,-2.4504,0.4198,-0.4427,0,0,0
-0.218,0.0652,0.9944,1.3206,-0.9237,-1.8397,0,0,0
-0.207,0.0576,0.998,3.1908,-2.7863,-2.3435,0,0,0
-0.2126,0.0491,1.0066,2.3435,-2.7863,-2.687,0,0,0
-0.2146,0.0393,1.0098,-0.2977,-1.7405,-0.8931,0,0,0
-0.1997,0.0564,1.0183,-3.4733,-0.3282,1.4427,0,0,0
-0.2087,0.0798,1.0171,-4.0992,1.3282,0.7863,0,0,0
-0.2021,0.0933,1.0173,-3.2824,1.542,-1.6031,0,0,0
-0.2017,0.0896,0.9988,-1.4275,0.916,-3.7634,0,0,0
-0.2043,0.0659,0.999,0.4351,-0.6947,-5.6641,0,0,0
-0.218,0.0466,1.009,1.2214,-1.3664,-5.8626,0,0,0
-0.2229,0.0256,1.0217,1.2901,-1.4198,-4.4351,0,0,0
-0.2153,0.0283,1.0266,0.1832,0.4656,-1.9313,0,0,0
-0.2104,0.052,1.0188,-0.4809,3.4427,-0.7481,0,0,0
-0.2117,0.0684,0.9863,-2.1298,4.0305,-1.7786,0,0,0
-0.2275,0.0525,0.9692,-3.1374,1.5344,-3.3053,0,0,0
-0.2329,0.0332,0.9744,-2.771,-0.8473,-3.2137,0,0,0
-0.2278,0.0227,1.0071,-1.8092,-1.6031,-1.1145,0,0,0
-0.2302,0.0349,1.0212,0.4351,-0.3206,0.2748,0,0,0
-0.219,0.0405,1.0051,1.626,0.1298,0.2901,0,0,0
-0.2117,0.0632,0.9924,1.2595,0.0229,0.2443,0,0,0
-0.2109,0.0684,0.9963,-0.3435,-0.6489,-1.2214,0,0,0
-0.2036,0.0664,1.0183,-1.1221,0.0687,-1.8855,0,0,0
-0.217,0.061,1.0054,-1.5344,0.7099,-2.3206,0,0,0
-0.2192,0.0479,1.0005,-1.1603,0.1374,-2.7405,0,0,0
-0.2241,0.0454,1.0027,-0.7176,-0.687,-2.0076,0,0,0
-0.2156,0.0515,0.9902,-1.4885,-0.5115,-1.0916,0,0,0
-0.2175,0.0679,1.0054,-1.5573,-0.0458,-1.5496,0,0,0
-0.2134,0.0588,1.0073,-0.3893,0.0687,-2.855,0,0,0
-0.2119,0.0713,0.9917,1.1985,-0.8244,-3.7252,0,0,0
-0.2209,0.075,1.0071,2.5267,-1.916,-5.2977,0,0,0
-0.2107,0.054,1.0171,2.8702,-2.0916,-6.4809,0,0,0
-0.2322,0.0295,1.0173,2.6489,-0.8168,-5.9618,0,0,0
-0.229,0.0198,1.0107,-0.1145,-0.084,-2.7023,0,0,0
-0.2227,0.043,1.0344,-2.4351,2.5573,-0.0992,0,0,0
-0.2068,0.0745,1.0391,-3.2443,5.2214,-0.3664,0,0,0
-0.2122,0.1013,1.0383,-1.4733,6.2748,-2.7557,0,0,0
-0.2131,0.1094,1.0308,1.8015,5.8626,-6.7634,0,0,0
-0.2036,0.123,1.0627,5.3511,5.145,-9.8855,0,0,0
-0.2002,0.1428,1.0991,10.0763,7.8092,-13.8244,0,0,0
-0.1892,0.1619,1.1145,16.6718,11.6947,-18.2061,0,0,0
-0.1775,0.1938,1.1169,23.6336,15.1069,-24.5114,0,0,0
-0.1711,0.2034,1.1252,26.5725,19.1069,-32.6794,0,0,0
-0.197,0.1553,1.1201,28.3053,24.2137,-39.6183,0,0,0
-0.2339,0.0747,1.0327,25.7634,28.8473,-41.2748,0,0,0
-0.2373,0.0457,0.9585,19.2748,30.2672,-35.6565,0,0,0
-0.2458,0.0601,0.9224,10.1756,29.8702,-31.2595,0,0,0
-0.27,0.0906,0.9006,3.0687,28.3588,-30.7176,0,0,0
-0.2681,0.1167,0.8936,-1.084,23.855,-32.4046,0,0,0
-0.2708,0.0979,0.9287,-3.6947,19.6794,-35.6947,0,0,0
-0.2852,0.0679,0.9602,-3.4198,18.9618,-37.0916,0,0,0
-0.291,0.0461,0.9749,-1.6107,19.2519,-36.1679,0,0,0
-0.2832,0.0457,0.958,2.3664,19.5649,-33.6183,0,0,0
-0.2817,0.0776,0.9229,6.5191,17.0305,-33.1069,0,0,0
-0.2661,0.0918,0.8967,8.5725,10.8855,-36.1756,0,0,0
-0.2961,0.0833,0.9033,8.4809,4.1527,-39.4275,0,0,0
-0.2893,0.0715,0.9563,6.626,-0.2824,-39.6489,0,0,0
-0.283,0.0613,1.0542,2.8168,4.0458,-38.4962,0,0,0
-0.2864,0.0571,1.074,0.1756,11.8702,-36.6641,0,0,0
-0.2883,0.071,1.0559,-0.6412,18.0763,-34.7863,0,0,0
-0.2847,0.1182,1.0212,2.9771,19.9237,-34.7405,0,0,0
-0.2568,0.1541,1.0208,8.8244,18.5496,-38.6565,0,0,0
-0.2825,0.0977,1.0105,11.5115,18.3588,-46.2595,0,0,0
-0.3511,-0.0012,0.9739,12.5573,17.1832,-46.374,0,0,0
-0.3613,-0.083,0.9578,10.2824,16.3053,-36.7099,0,0,0
-0.3506,-0.0664,0.9766,6.4046,17.9924,-24.5114,0,0,0
-0.3464,0.0134,0.9871,3.4351,20.5114,-17.8855,0,0,0
-0.3149,0.093,0.9763,2.145,21.4809,-18.1145,0,0,0
-0.2942,0.146,0.9929,3.6794,21.9542,-23.4809,0,0,0
-0.2922,0.1521,1.0125,5.9695,23.5649,-31.5725,0,0,0
-0.3005,0.0947,1.0232,8.2214,25.9695,-38.0,0,0,0
-0.3865,-0.0347,0.9788,10.3053,28.3664,-37.8855,0,0,0
-0.4089,-0.1035,0.9036,11.5115,25.4733,-26.771,0,0,0
-0.384,-0.0825,0.8975,9.4656,22.6489,-13.7405,0,0,0
-0.3755,0.0132,0.925,6.374,21.7099,-7.6641,0,0,0
-0.363,0.082,0.9316,3.7939,21.5496,-9.3206,0,0,0
-0.3428,0.0999,0.9333,2.4198,20.1374,-13.0305,0,0,0
-0.3491,0.0825,0.9214,2.4504,18.6718,-17.1527,0,0,0
-0.3696,0.041,0.9253,3.9542,17.2595,-19.3053,0,0,0
-0.3831,0.0088,0.9316,4.1221,15.7405,-17.6641,0,0,0
-0.4063,-0.0093,0.9453,2.9695,14.8779,-13.6794,0,0,0
-0.4109,-0.0076,0.9561,2.0763,15.3664,-8.7405,0,0,0
-0.3936,0.0229,0.9651,1.855,17.0229,-4.9237,0,0,0
-0.394,0.0532,0.9551,2.5649,18.2214,-4.3588,0,0,0
-0.3801,0.0786,0.9414,4.5496,17.0916,-5.7405,0,0,0
-0.3809,0.0959,0.9404,6.626,15.5878,-8.5267,0,0,0
-0.3738,0.1106,0.957,8.4733,14.7328,-12.2214,0,0,0
-0.3831,0.1033,0.9802,8.1069,16.8855,-15.6183,0,0,0
-0.4092,0.0649,0.9834,6.7939,20.0,-17.458,0,0,0
-0.4246,0.021,0.9629,5.0229,22.0611,-15.1298,0,0,0
-0.428,0.0039,0.9363,4.084,22.2977,-10.4809,0,0,0
-0.428,0.0344,0.9128,4.1908,22.2214,-6.7786,0,0,0
-0.425,0.0737,0.8892,5.9389,18.7176,-6.9084,0,0,0
-0.4089,0.1018,0.9011,7.1298,14.7863,-9.0076,0,0,0
-0.4028,0.1228,0.9285,7.2901,13.2901,-13.0153,0,0,0
-0.4084,0.1167,0.9612,6.9542,14.1527,-16.7786,0,0,0
-0.4033,0.0908,0.9707,6.6183,16.7634,-18.8168,0,0,0
-0.4207,0.094,0.9668,5.9008,19.7481,-20.0,0,0,0
-0.4524,0.0728,0.9585,5.0916,21.4427,-20.9466,0,0,0
-0.4548,0.0417,0.9214,5.2061,21.084,-19.1756,0,0,0
-0.4626,0.0303,0.9109,5.7786,20.0076,-16.0153,0,0,0
-0.4673,0.0413,0.8867,6.8015,18.0534,-13.3206,0,0,0
-0.4653,0.0449,0.8879,7.1603,15.6947,-12.1145,0,0,0
-0.4731,0.0339,0.8745,6.458,13.4427,-11.2672,0,0,0
-0.4573,0.0342,0.8887,5.4504,10.6794,-9.2366,0,0,0
-0.4446,0.0837,0.927,3.7099,11.145,-8.9313,0,0,0
-0.4351,0.1157,0.9678,2.2443,13.7023,-11.2061,0,0,0
-0.426,0.1208,0.9771,1.916,17.5649,-14.687,0,0,0
-0.436,0.1318,0.9885,2.2137,21.6947,-18.5802,0,0,0
-0.4487,0.125,1.0054,2.9313,25.8397,-21.771,0,0,0
-0.4373,0.1206,1.02,4.4198,30.5114,-23.7481,0,0,0
-0.4536,0.1045,1.0303,6.0534,35.1832,-26.5649,0,0,0
-0.4946,0.073,0.998,8.1603,39.0,-28.2595,0,0,0
-0.4963,0.0388,0.978,10.4504,41.1832,-26.5802,0,0,0
-0.501,0.0459,0.9614,12.9237,43.3053,-23.7328,0,0,0
-0.5154,0.0415,0.9087,15.916,44.2214,-22.4046,0,0,0
-0.5122,0.0647,0.8667,19.0229,41.7252,-21.8015,0,0,0
-0.5078,0.0869,0.856,21.3511,39.3588,-22.1221,0,0,0
-0.4846,0.1333,0.8591,23.4504,38.1221,-25.4504,0,0,0
-0.4895,0.1577,0.8599,24.1603,39.9466,-31.8931,0,0,0
-0.5173,0.1282,0.7971,23.5725,40.1603,-36.9313,0,0,0
-0.5608,0.0754,0.7329,19.6107,36.4885,-38.1603,0,0,0
-0.6055,0.0183,0.6855,14.4809,30.4122,-35.7023,0,0,0
-0.6221,-0.0217,0.6587,8.6641,23.6031,-29.7634,0,0,0
-0.6501,-0.0261,0.6272,2.5115,15.7328,-22.1221,0,0,0
-0.668,-0.0442,0.6033,-3.9008,5.2519,-14.3817,0,0,0
-0.6738,-0.0591,0.6113,-9.4275,-5.687,-7.3511,0,0,0
-0.6475,-0.0916,0.6455,-12.9924,-16.5649,1.4733,0,0,0
-0.6038,-0.0889,0.6855,-12.8015,-24.7557,9.3893,0,0,0
-0.5652,-0.0166,0.7637,-12.3893,-28.3893,13.542,0,0,0
-0.5549,0.0508,0.8145,-15.7863,-29.1603,11.8168,0,0,0
-0.5178,0.0845,0.8921,-20.9618,-26.2672,9.0153,0,0,0
-0.5066,0.0898,0.9458,-26.3893,-18.7863,6.4275,0,0,0
-0.5146,0.0642,0.937,-29.1985,-12.7481,4.6107,0,0,0
-0.5105,0.0305,0.9165,-28.5573,-10.7557,5.084,0,0,0
-0.5015,0.0623,0.9043,-25.0763,-11.8321,5.8779,0,0,0
-0.4866,0.1074,0.9353,-22.7176,-12.4351,3.8931,0,0,0
-0.4807,0.1162,0.9788,-18.7786,-10.0611,-1.6794,0,0,0
-0.4917,0.0774,0.9524,-14.7863,-6.542,-6.4275,0,0,0
-0.5115,0.0278,0.8877,-11.0229,-5.2137,-6.8855,0,0,0
-0.5244,-0.0061,0.8291,-8.5878,-6.8244,-4.855,0,0,0
-0.5225,0.0073,0.8176,-9.3893,-7.1069,-2.3511,0,0,0
-0.5305,0.012,0.8005,-13.0687,-7.3359,-1.1908,0,0,0
-0.5376,0.009,0.7571,-16.0687,-9.9466,0.4275,0,0,0
-0.5125,0.019,0.7573,-17.3053,-14.3817,1.626,0,0,0
-0.4946,0.0786,0.7944,-19.7481,-18.6336,0.4046,0,0,0
-0.4868,0.0898,0.8611,-22.2595,-18.8626,-5.8397,0,0,0
-0.4983,0.0579,0.8838,-22.2214,-15.8244,-12.084,0,0,0
-0.5164,-0.0085,0.8567,-19.6412,-13.9008,-14.5191,0,0,0
-0.5281,-0.0554,0.8633,-17.0153,-13.542,-12.6947,0,0,0
-0.6011,-0.1611,0.9307,-13.6794,-11.0382,2.1374,0,0,0
-0.5889,-0.1687,0.9197,-7.5649,-5.3359,13.916,0,0,0
-0.5439,-0.072,0.8877,-6.2366,-2.1145,17.771,0,0,0
-0.5229,-0.0159,0.884,-0.8855,-0.542,17.0992,0,0,0
-0.5,0.0566,0.8313,4.7099,-5.2977,9.2137,0,0,0
-0.5137,0.0425,0.8186,8.0229,-10.3893,2.4885,0,0,0
-0.5305,-0.0132,0.8406,8.5267,-12.8397,-0.084,0,0,0
-0.551,-0.0537,0.8223,8.9008,-14.855,0.8931,0,0,0
-0.5264,0.0083,0.8359,5.5725,-15.9313,3.0229,0,0,0
-0.4734,0.1199,0.7356,-0.1298,-22.2519,-5.2061,0,0,0
-0.4834,0.0876,0.783,-6.2214,-23.6412,-13.7252,0,0,0
-0.5056,-0.0024,0.8474,-5.7176,-26.0076,-12.6031,0,0,0
-0.5215,-0.0603,0.884,-1.9084,-27.3206,-4.5267,0,0,0
-0.5476,-0.0791,0.8489,5.0763,-30.4504,5.0229,0,0,0
-0.5161,-0.0088,0.8362,10.0229,-36.9847,11.5725,0,0,0
-0.4685,0.0557,0.8076,8.6947,-41.5038,10.4427,0,0,0
-0.4297,0.1272,0.833,4.4198,-44.313,5.3511,0,0,0
-0.4004,0.1147,0.8713,1.1374,-43.8473,-0.3664,0,0,0
-0.416,0.085,0.8589,1.0458,-43.313,-4.313,0,0,0
-0.4595,0.0361,0.8252,3.0763,-48.2901,-5.5878,0,0,0
-0.4775,-0.0178,0.8232,7.3511,-57.6031,-3.5649,0,0,0
-0.4756,-0.0596,0.854,9.2061,-63.7939,1.4504,0,0,0
-0.4399,-0.0735,0.9502,8.1908,-62.9237,8.2901,0,0,0
-0.3948,-0.0046,1.0183,4.4122,-56.2061,14.7786,0,0,0
-0.3865,0.0295,1.0186,0.0763,-48.1069,15.6183,0,0,0
-0.4092,0.0171,0.989,-2.0305,-44.0611,13.6183,0,0,0
-0.4031,-0.0254,0.9619,-1.1145,-43.0458,14.6794,0,0,0
-0.3723,-0.0125,1.009,-0.6641,-42.2901,18.3282,0,0,0
-0.354,0.0247,1.0554,3.4275,-37.4962,19.7557,0,0,0
-0.3394,0.05,0.9939,9.1832,-33.2672,19.1374,0,0,0
-0.345,0.0466,0.8887,13.3053,-37.8244,17.5344,0,0,0
-0.3706,0.0237,0.855,19.0916,-48.855,17.2824,0,0,0
-0.3567,0.0173,0.918,24.3664,-59.0382,18.374,0,0,0
-0.3274,0.0339,1.0027,25.7634,-60.4275,19.5573,0,0,0
-0.2712,0.1033,1.0857,23.3817,-52.8397,20.3435,0,0,0
-0.2556,0.1597,1.0972,19.7252,-42.2137,17.9542,0,0,0
-0.2336,0.1631,1.115,15.855,-32.4351,12.1145,0,0,0
-0.2434,0.1528,1.0684,17.9313,-26.4046,6.5344,0,0,0
-0.2549,0.1501,1.0356,22.7099,-28.7634,2.1832,0,0,0
-0.2546,0.1296,1.0554,29.3282,-31.2977,-2.8015,0,0,0
-0.2898,0.1213,1.1218,39.687,-27.9466,-7.0153,0,0,0
-0.2546,0.0908,1.0444,44.1908,-27.2977,-7.3817,0,0,0
-0.2588,0.0989,1.0276,43.229,-23.9695,-5.4809,0,0,0
-0.2549,0.1272,1.0046,38.9008,-22.3435,-4.7939,0,0,0
-0.2551,0.0737,0.9912,27.7786,-17.9542,-1.0534,0,0,0
-0.2559,0.094,0.9648,18.8015,-15.3206,2.0382,0,0,0
-0.2424,0.1379,0.9907,12.0992,-16.0,1.1908,0,0,0
-0.2554,0.1465,0.9856,8.084,-16.5344,-1.3282,0,0,0
-0.2449,0.1279,0.9644,3.0229,-18.2061,-2.4351,0,0,0
-0.2395,0.1135,0.9653,0.4962,-18.9924,-2.1298,0,0,0
-0.2415,0.1165,0.9863,-0.7405,-16.7328,-1.0305,0,0,0
-0.2373,0.1179,0.9846,-3.3893,-14.8626,1.5802,0,0,0
-0.2292,0.1379,0.9998,-5.5954,-12.7405,4.1908,0,0,0
-0.2268,0.1516,1.0171,-8.0992,-10.5496,5.3053,0,0,0
-0.2371,0.1367,1.0366,-6.9695,-8.6489,4.5725,0,0,0
-0.2485,0.1033,1.0298,-7.0229,-7.3588,5.4885,0,0,0
-0.2515,0.1013,1.0342,-7.2672,-5.9695,10.0382,0,0,0
-0.2341,0.1155,1.064,-7.9542,-2.1527,13.1221,0,0,0
-0.2324,0.1333,1.0576,-6.1221,0.5878,12.9542,0,0,0
-0.241,0.1514,1.0544,-6.2824,-0.3664,11.2214,0,0,0
-0.2119,0.0913,1.0723,-8.5802,-1.0611,14.8626,0,0,0
-0.2356,0.1272,1.0684,-7.2061,1.6107,18.2824,0,0,0
-0.2166,0.1597,1.0234,-3.2901,1.3588,15.8168,0,0,0
-0.178,0.3306,0.9636,8.2443,-1.9389,3.6031,0,0,0
-0.1541,0.2141,0.9731,6.2748,-8.6718,-3.5802,0,0,0
-0.2102,0.2585,0.8999,8.3053,-14.3893,-8.771,0,0,0
-0.1963,0.1936,0.8892,2.4122,-19.8855,-12.9008,0,0,0
-0.2378,0.1379,0.9763,-1.1298,-17.3282,-14.6718,0,0,0
-0.1865,0.1304,1.0029,-4.7939,-9.8855,-11.2366,0,0,0
-0.1829,0.1631,0.9587,-7.0687,-6.5802,-7.5344,0,0,0
-0.1597,0.2295,0.9478,-9.1527,-5.1374,-9.3359,0,0,0
-0.1379,0.1865,0.8987,-12.4809,-3.9084,-12.6107,0,0,0
-0.1843,0.1753,0.8743,-8.5954,-10.4275,-17.8092,0,0,0
-0.166,0.1755,0.9338,-13.3969,-14.7634,-21.7634,0,0,0
-0.2,0.1294,0.9067,-11.7405,-19.1985,-22.3588,0,0,0
-0.2339,0.0952,0.9888,-6.5191,-24.1985,-22.4504,0,0,0
-0.2412,0.0417,1.031,-2.1374,-23.9389,-20.9466,0,0,0
-0.2341,0.0327,1.0747,0.9924,-21.2901,-15.3664,0,0,0
-0.2266,0.0383,1.085,4.0611,-16.5725,-8.4962,0,0,0
-0.2109,0.0999,1.0325,4.0611,-13.5954,-5.0992,0,0,0
-0.2363,0.0623,1.0679,0.9466,1.5649,-0.1603,0,0,0
-0.231,0.0894,1.0359,-1.6031,0.0534,0.9771,0,0,0
-0.2031,0.0784,1.0977,-3.9847,0.0,0.2977,0,0,0
-0.231,0.0747,0.9954,-1.0763,-1.9771,1.5878,0,0,0
-0.1172,0.1201,0.9773,0.7634,-3.1603,-7.6107,0,0,0
-0.1682,0.05,1.0044,22.8473,-3.9389,-5.1603,0,0,0
-0.2065,0.0444,1.0444,13.4809,-5.7786,-6.1069,0,0,0
-0.2129,0.0127,1.0842,12.6947,-2.3053,1.4427,0,0,0
-0.2112,0.0447,0.9873,11.1221,-0.2061,6.5725,0,0,0
-0.1924,0.0803,0.9167,6.7863,-1.8473,8.6641,0,0,0
-0.1455,0.1528,0.9414,1.6947,-3.2824,6.5878,0,0,0
-0.1609,0.1343,1.0222,-5.458,0.313,4.374,0,0,0
-0.1692,0.1536,1.0266,-9.1679,1.855,1.7939,0,0,0
-0.1858,0.1169,1.011,-8.8473,2.6641,-0.8931,0,0,0
-0.1946,0.0833,0.9453,-7.1603,-0.6031,-0.7405,0,0,0
-0.189,0.1467,0.9717,-2.7557,-4.5649,-3.0153,0,0,0
-0.1677,0.1587,0.9687,-0.0687,-5.1985,-7.1832,0,0,0
-0.144,0.1965,0.9312,-1.5573,-8.1374,-9.8244,0,0,0
-0.155,0.2373,0.9763,-0.4809,-10.8626,-14.7786,0,0,0
-0.1716,0.1926,1.0642,-4.6183,-9.0992,-16.916,0,0,0
-0.1792,0.1482,1.0586,-8.9618,-6.0534,-14.687,0,0,0
-0.1948,0.1672,1.0352,-10.9008,-3.9008,-13.1145,0,0,0
-0.2034,0.1294,1.0479,-13.8168,-0.7863,-13.2519,0,0,0
-0.2107,0.1243,1.0132,-14.4885,1.0458,-13.5038,0,0,0
-0.2202,0.1025,1.0022,-13.4809,1.6031,-13.7099,0,0,0
-0.2227,0.0657,1.0117,-11.6718,1.3359,-12.9924,0,0,0
-0.2368,0.051,1.0217,-6.7099,0.9008,-11.0687,0,0,0
-0.2395,0.0427,1.0176,-0.916,0.6336,-9.1298,0,0,0
-0.2144,0.0742,1.0291,3.6336,0.5496,-7.5573,0,0,0
-0.2083,0.1172,1.0208,5.374,0.8779,-8.4733,0,0,0
-0.1931,0.1287,1.0552,5.6031,2.9847,-10.3435,0,0,0
-0.1802,0.1372,1.0571,3.626,6.4504,-12.7328,0,0,0
-0.1672,0.1462,1.0686,1.6489,9.1374,-14.1527,0,0,0
-0.1699,0.1394,1.0527,0.5649,11.6107,-15.4275,0,0,0
-0.1768,0.1245,1.0439,1.0382,13.9084,-15.7939,0,0,0
-0.177,0.113,0.9995,1.916,15.1069,-15.7786,0,0,0
-0.1838,0.1201,0.9917,2.916,16.3282,-15.7328,0,0,0
-0.1731,0.134,0.9922,2.0916,17.9084,-15.9771,0,0,0
-0.1672,0.1401,1.0105,1.1679,19.8015,-17.7481,0,0,0
-0.1775,0.1309,0.9949,0.4427,21.3053,-18.9924,0,0,0
-0.207,0.0967,0.9919,1.7405,21.5573,-20.9771,0,0,0
-0.2249,0.0847,0.9822,5.1221,20.8168,-21.0687,0,0,0
-0.2244,0.0979,0.9438,9.3664,17.0229,-20.7939,0,0,0
-0.1931,0.1279,0.9441,12.2366,13.9466,-20.9542,0,0,0
-0.1851,0.1436,1.0491,8.1069,14.7557,-23.5649,0,0,0
-0.208,0.1565,1.0347,4.7481,18.8931,-22.6794,0,0,0
-0.2217,0.1323,1.0215,0.229,19.771,-23.1756,0,0,0
-0.2268,0.1165,0.9863,-2.4733,21.1527,-21.8473,0,0,0
-0.2637,0.1096,1.012,-2.7481,21.8092,-22.9389,0,0,0
-0.2351,0.1707,0.8918,0.8931,17.6947,-25.3817,0,0,0
-0.2417,0.1106,1.0242,-1.4046,20.0992,-28.3206,0,0,0
-0.2747,0.113,1.0657,-3.0076,20.2977,-29.2595,0,0,0
-0.2761,0.123,0.9829,-1.3053,18.8473,-27.6412,0,0,0
-0.2705,0.1216,0.9626,-1.458,17.4198,-27.0916,0,0,0
-0.2664,0.1287,1.0288,-2.1908,20.0153,-26.7405,0,0,0
-0.2725,0.1353,1.0151,-2.8321,22.6412,-26.7252,0,0,0
-0.2756,0.1313,0.9985,-5.1145,23.3511,-27.2901,0,0,0
-0.3096,0.1077,0.9863,-7.4962,22.6412,-28.7557,0,0,0
-0.3167,0.0737,0.9895,-9.9771,21.9542,-29.1069,0,0,0
-0.3193,0.0779,0.9636,-9.6718,19.9389,-28.6718,0,0,0
-0.3042,0.0916,0.9795,-9.4275,19.0076,-27.6336,0,0,0
-0.3015,0.1111,0.9856,-9.7557,19.9847,-27.6107,0,0,0
-0.3103,0.1208,1.0127,-2.5649,17.687,-28.1679,0,0,0
-0.3164,0.0767,1.0015,-5.1069,19.7863,-29.0611,0,0,0
-0.3372,0.0393,0.9534,-2.3817,17.9237,-25.6183,0,0,0
-0.3389,0.0549,0.9265,1.8321,14.7634,-22.9618,0,0,0
-0.3281,0.0725,0.939,5.4733,12.8855,-21.5649,0,0,0
-0.3325,0.0696,0.97,4.3511,13.4733,-22.2824,0,0,0
-0.3413,0.0669,0.9333,3.1145,13.1832,-21.6718,0,0,0
-0.3345,0.0771,0.946,3.6031,11.1145,-20.8397,0,0,0
-0.3308,0.0835,0.9338,2.1527,9.8702,-21.5191,0,0,0
-0.3418,0.0835,0.9697,3.1221,9.9771,-21.6107,0,0,0
-0.3386,0.0745,0.9438,-1.4504,9.5115,-22.5114,0,0,0
-0.3279,0.1216,0.9443,-2.084,10.3206,-25.3282,0,0,0
-0.3118,0.0901,0.9636,-2.7176,10.0611,-25.9237,0,0,0
-0.3167,0.1067,0.9778,-3.7863,12.6336,-27.7634,0,0,0
-0.3203,0.0708,0.9575,-6.2824,11.8244,-29.3817,0,0,0
-0.3706,0.0732,0.9802,-6.9466,13.3359,-32.7939,0,0,0
-0.363,0.0142,0.9404,-7.3359,13.0534,-31.1756,0,0,0
-0.3623,0.0256,0.9463,-6.0687,11.6412,-27.7481,0,0,0
-0.354,0.0286,0.991,-5.0611,12.6107,-26.0458,0,0,0
-0.3625,0.0547,0.9792,-3.7481,14.5649,-25.9237,0,0,0
-0.342,0.092,0.9443,-2.6336,12.3588,-27.3511,0,0,0
-0.3228,0.083,0.9863,-1.313,15.6336,-29.5725,0,0,0
-0.3484,0.0725,1.0129,-4.1221,22.0916,-31.8473,0,0,0
-0.3613,0.0776,0.9971,-6.2061,25.8168,-33.7099,0,0,0
-0.396,0.0022,0.9988,-6.1221,29.4656,-35.374,0,0,0
-0.3926,0.0149,0.9441,-5.2443,27.8321,-33.9618,0,0,0
-0.3765,-0.0293,0.9275,-2.6107,29.0076,-28.1221,0,0,0
-0.3887,0.0273,0.8926,0.0305,27.7634,-25.2443,0,0,0
-0.3931,0.0466,0.9333,-1.1221,26.6336,-25.8779,0,0,0
-0.4104,0.0479,0.9465,-3.0611,25.458,-26.5725,0,0,0
-0.4309,0.0237,0.9233,-3.7099,20.8321,-24.6794,0,0,0
-0.4072,0.0491,0.9404,-4.1908,19.5114,-25.145,0,0,0
-0.4236,-0.0012,0.9434,-5.9466,21.542,-22.1374,0,0,0
-0.4246,0.0178,0.9333,-5.6336,20.9618,-20.4427,0,0,0
-0.4243,-0.0042,0.9514,-3.1832,21.4275,-19.8015,0,0,0
-0.4231,-0.01,0.936,-2.0305,23.7252,-18.0916,0,0,0
-0.4465,-0.0083,0.9114,-1.3435,23.542,-17.2137,0,0,0
-0.457,-0.0229,0.8938,-0.6565,21.2061,-15.3817,0,0,0
-0.4468,-0.0015,0.9426,-0.9771,17.0458,-14.6947,0,0,0
-0.4233,0.012,0.915,-2.4046,14.916,-14.4351,0,0,0
-0.5061,-0.0134,0.8096,0.5115,8.0153,-11.3511,0,0,0
-0.4089,0.0254,0.9536,-1.5649,12.5725,-15.4809,0,0,0
-0.4453,-0.0076,0.9241,-3.5649,15.542,-13.6489,0,0,0
-0.4536,-0.0066,0.8879,-4.8397,15.7099,-13.458,0,0,0
-0.478,-0.0125,0.8379,-5.5115,13.2366,-13.4885,0,0,0
-0.4712,-0.0474,0.8765,-3.3359,9.9389,-10.229,0,0,0
-0.4548,0.0024,0.8623,-1.626,6.7863,-7.6641,0,0,0
-0.4319,0.0159,0.8894,-2.1756,4.6183,-9.0763,0,0,0
-0.4365,0.021,0.8618,-2.6031,2.5038,-8.6565,0,0,0
-0.4329,0.0129,0.9087,-3.2824,2.9008,-10.1985,0,0,0
-0.4509,-0.0083,0.9004,-4.5267,4.1527,-10.4885,0,0,0
-0.4619,-0.0142,0.9089,-2.8779,4.8779,-9.7023,0,0,0
-0.4512,0.0024,0.9045,-3.8168,4.4809,-10.5954,0,0,0
-0.4749,-0.0061,0.9026,-3.9237,3.9695,-11.3511,0,0,0
-0.4668,-0.0044,0.8799,-3.2214,2.4962,-11.3588,0,0,0
-0.4675,-0.0122,0.8923,-1.855,0.9466,-10.1527,0,0,0
-0.4507,0.0237,0.9038,-1.6641,0.6183,-9.7328,0,0,0
-0.4429,0.0325,0.9194,-3.1603,0.7634,-11.4504,0,0,0
-0.4553,0.0125,0.9189,-3.7405,1.6641,-12.2595,0,0,0
-0.4707,-0.0081,0.9058,-3.3359,2.0763,-12.3588,0,0,0
-0.4727,-0.0183,0.9146,-2.2595,2.7328,-11.8244,0,0,0
-0.4954,-0.0327,0.8901,-1.6489,2.1603,-12.4198,0,0,0
-0.4961,-0.0215,0.8867,-0.3664,1.0382,-13.2595,0,0,0
-0.4919,-0.0254,0.8928,-0.0458,-0.313,-12.7023,0,0,0
-0.5042,-0.0347,0.9026,0.3664,-2.2672,-12.2214,0,0,0
-0.4863,-0.0278,0.9016,2.3053,-3.7786,-10.8015,0,0,0
-0.4753,0.0303,0.8987,2.4198,-5.0153,-11.916,0,0,0
-0.469,-0.0007,0.9309,1.5191,-4.5038,-13.2901,0,0,0
-0.4751,-0.0117,0.9202,2.374,-3.5191,-13.4198,0,0,0
-0.5022,-0.0298,0.9153,3.7099,-4.3053,-14.2748,0,0,0
-0.53,-0.0564,0.917,5.3053,-4.4809,-15.6489,0,0,0
-0.4893,-0.0188,0.9187,5.5115,-3.7634,-14.8168,0,0,0
-0.4397,0.0371,0.9275,3.3511,-2.0458,-15.1221,0,0,0
-0.4426,0.0518,0.9368,-1.5191,0.9466,-17.3588,0,0,0
-0.4531,0.0234,0.9441,-4.5878,3.1069,-18.5038,0,0,0
-0.4585,0.0037,0.9292,-5.084,4.6107,-18.6794,0,0,0
-0.4631,-0.0127,0.9121,-1.9313,5.6489,-19.5038,0,0,0
-0.4785,-0.0107,1.0117,-3.1298,6.458,-22.2824,0,0,0
-0.4976,-0.0564,0.9238,-1.2901,7.1527,-20.7786,0,0,0
-0.4858,-0.0454,0.8901,-2.1756,6.3664,-21.1832,0,0,0
-0.468,-0.0437,0.884,-1.0305,6.374,-20.7481,0,0,0
-0.4724,-0.0361,0.9126,-1.6565,6.0153,-19.8015,0,0,0
-0.4644,-0.0151,0.9014,-1.3206,6.084,-19.6947,0,0,0
-0.4521,0.0042,0.8994,-0.8931,5.9466,-21.7099,0,0,0
-0.4607,-0.0229,0.9038,-0.626,5.8855,-23.8015,0,0,0
-0.4829,-0.0549,0.8823,1.1145,5.3588,-23.9084,0,0,0
-0.5034,-0.0334,0.7043,13.4504,0.7252,-23.2901,0,0,0
-0.488,-0.1196,0.9084,5.1374,2.4351,-20.8855,0,0,0
-0.5039,-0.0715,0.8516,4.2443,3.0076,-14.3588,0,0,0
-0.4722,-0.022,0.8826,1.9008,2.1069,-14.7939,0,0,0
-0.4717,-0.0552,0.8843,1.626,0.4198,-14.626,0,0,0
-0.4504,0.0071,0.8857,0.0382,0.9313,-13.7939,0,0,0
-0.4368,0.0029,0.9087,-2.8397,1.8397,-13.7176,0,0,0
-0.4297,0.0005,0.9285,-5.3588,3.4046,-12.6947,0,0,0
-0.4497,-0.0178,0.9155,-7.1298,4.3817,-12.7939,0,0,0
-0.4675,-0.0779,0.9116,-7.0153,4.9008,-12.4809,0,0,0
-0.4802,-0.074,0.917,-4.1527,6.2595,-12.3206,0,0,0
-0.4678,-0.0869,0.9211,-0.6794,7.1527,-11.9618,0,0,0
-0.4636,-0.0293,0.9294,-1.3969,10.0992,-12.6336,0,0,0
-0.4451,-0.02,0.9419,-5.1679,12.9695,-13.7557,0,0,0
-0.46,-0.0298,0.9475,-7.0,16.5725,-14.6336,0,0,0
-0.4727,-0.054,0.9458,-6.9466,19.916,-15.3282,0,0,0
-0.4812,-0.073,0.948,-5.1603,22.855,-15.0076,0,0,0
-0.4939,-0.0876,0.915,-3.0611,23.9313,-14.145,0,0,0
-0.5227,-0.115,0.8748,-1.1069,23.4962,-13.7557,0,0,0
-0.5505,-0.127,0.8567,0.4656,19.542,-11.1221,0,0,0
-0.5588,-0.1204,0.8457,2.313,13.4962,-7.8397,0,0,0
-0.5596,-0.1289,0.8325,3.9008,5.4122,-3.8626,0,0,0
-0.5537,-0.1235,0.8333,4.5573,-3.4885,3.5725,0,0,0
-0.53,-0.0728,0.8152,5.8244,-12.0916,8.7939,0,0,0
-0.5381,-0.1013,0.8018,5.2901,-20.0229,11.9008,0,0,0
-0.541,-0.1624,0.7461,8.4733,-30.4427,20.4046,0,0,0
-0.5588,-0.1902,0.7537,11.9924,-44.2901,30.7557,0,0,0
-0.4944,-0.1873,0.7332,17.9466,-58.229,42.9847,0,0,0
-0.4512,-0.0769,0.7893,17.7557,-62.6565,48.8779,0,0,0
-0.4136,-0.0796,0.7441,10.0916,-60.3588,48.8931,0,0,0
-0.4158,-0.1162,0.7207,4.2748,-62.8626,54.1985,0,0,0
-0.363,-0.0217,0.803,-1.4427,-67.1603,55.8397,0,0,0
-0.3342,0.0264,0.8914,-4.3588,-65.5802,53.8702,0,0,0
-0.3345,0.1003,0.9927,-7.687,-56.916,45.2748,0,0,0
-0.3379,-0.0144,0.9609,-12.2748,-46.8321,36.2366,0,0,0
-0.4229,-0.1206,0.8945,-9.2824,-43.7405,41.2824,0,0,0
-0.4509,-0.1621,0.8245,-4.7939,-48.2977,49.7099,0,0,0
-0.4229,-0.1409,0.8433,-2.6794,-53.2137,57.5191,0,0,0
-0.4124,-0.1118,0.8477,-1.1374,-57.458,60.4656,0,0,0
-0.4028,-0.083,0.8496,0.0763,-56.7634,60.4351,0,0,0
-0.3833,-0.0771,0.8469,4.5496,-62.8702,63.1221,0,0,0
-0.3049,-0.0034,0.947,7.1069,-66.8473,66.4198,0,0,0
-0.2627,0.0974,1.0415,4.2061,-63.9008,66.3359,0,0,0
-0.2771,0.123,1.092,-0.3664,-57.458,59.1679,0,0,0
-0.3257,0.0356,1.04,-2.6947,-52.0229,54.084,0,0,0
-0.3486,-0.0737,0.9199,0.4275,-52.5115,57.542,0,0,0
-0.3269,-0.0767,0.9954,10.374,-55.1298,63.0,0,0,0
-0.2781,0.0596,1.0176,14.0992,-58.2595,67.2824,0,0,0
-0.1831,0.2102,1.1067,4.5649,-57.229,64.7328,0,0,0
-0.1348,0.3228,1.1897,-7.3817,-48.3053,53.9847,0,0,0
-0.1533,0.2698,1.2334,-18.0305,-33.3435,41.3053,0,0,0
-0.2166,0.0942,1.1436,-23.2366,-20.7099,33.8473,0,0,0
-0.3101,-0.0281,1.0164,-19.9924,-17.6794,34.5115,0,0,0
-0.324,-0.0759,0.939,-9.0458,-22.2214,41.3511,0,0,0
-0.3096,-0.0271,0.9629,2.0076,-29.3588,46.3588,0,0,0
-0.2869,0.0212,1.0039,9.7252,-34.9847,48.6107,0,0,0
-0.2048,0.104,1.0217,12.6336,-39.0992,49.1374,0,0,0
-0.1709,0.2393,1.0239,6.9847,-41.3435,41.0992,0,0,0
-0.1008,0.2368,1.1804,-2.0382,-30.6641,34.687,0,0,0
-0.1389,0.2241,1.1538,-17.0687,-12.9542,26.5878,0,0,0
-0.1572,0.167,1.0937,-28.1756,2.2595,21.8702,0,0,0
-0.197,0.1216,1.0486,-35.916,11.6336,19.5038,0,0,0
-0.2017,0.0793,1.011,-35.6031,12.0458,17.2824,0,0,0
-0.2356,0.0313,1.01,-28.6947,9.458,14.4962,0,0,0
-0.2339,0.0261,1.0251,-18.374,7.0458,12.1374,0,0,0
-0.1982,0.0547,1.082,-11.7405,8.7634,9.4809,0,0,0
-0.1555,0.1182,1.1509,-6.9084,17.4046,4.8015,0,0,0
-0.1555,0.168,1.1716,-5.8931,26.4198,-3.9618,0,0,0
-0.1316,0.1304,1.4407,24.2595,38.6947,-18.6489,0,0,0
-0.1494,0.2786,1.1045,12.1374,38.1985,-35.9313,0,0,0
-0.1841,0.2629,1.0806,25.5191,34.9313,-49.0,0,0,0
-0.1892,0.1428,1.1733,29.2824,38.229,-57.5573,0,0,0
-0.168,0.0991,1.1804,31.6412,48.9695,-61.0153,0,0,0
-0.2063,0.0623,1.1599,28.916,61.229,-63.7328,0,0,0
-0.23,0.0439,1.0298,27.6183,68.5115,-63.1374,0,0,0
-0.231,0.0393,0.9521,19.8321,72.0611,-62.9008,0,0,0
-0.2751,-0.0283,0.845,13.5344,72.084,-63.2366,0,0,0
-0.2952,-0.0784,0.8025,4.8092,70.3588,-60.8473,0,0,0
-0.3389,-0.0952,0.8726,-1.3969,71.3588,-55.8244,0,0,0
-0.3176,0.0198,0.9282,-2.4427,73.2137,-54.5954,0,0,0
-0.3201,0.0808,0.9524,-4.9924,74.2595,-59.9618,0,0,0
-0.3477,0.0659,0.9385,-3.1679,72.0534,-61.9847,0,0,0
-0.3425,0.041,0.9319,3.8779,67.9466,-58.7252,0,0,0
-0.3503,0.0427,0.9453,10.2977,65.5802,-56.4809,0,0,0
-0.3938,0.0149,0.9297,14.4733,62.2748,-52.4885,0,0,0
-0.4324,0.0242,0.8989,18.1145,57.0992,-47.687,0,0,0
-0.4529,0.0256,0.8845,17.5802,49.4351,-42.8168,0,0,0
-0.4475,0.0222,0.8564,16.9847,42.3282,-38.1985,0,0,0
-0.4417,0.0701,0.8501,16.8321,35.5267,-37.9008,0,0,0
-0.4785,0.0173,0.9299,7.916,34.1298,-39.7328,0,0,0
-0.4951,-0.0261,0.8853,3.8168,34.4809,-35.5878,0,0,0
-0.4924,-0.0317,0.8391,2.5496,31.7023,-30.8473,0,0,0
-0.501,-0.021,0.8086,4.9618,25.6947,-28.458,0,0,0
-0.5063,-0.0337,0.8076,5.3511,20.1908,-25.374,0,0,0
-0.5156,-0.0283,0.8123,4.3206,16.2061,-22.3817,0,0,0
-0.4956,-0.0171,0.8306,2.8321,13.0992,-20.2595,0,0,0
-0.5095,-0.0076,0.8196,0.9313,11.3969,-18.4809,0,0,0
-0.5017,-0.0234,0.8423,0.3893,8.2137,-16.145,0,0,0
-0.489,-0.0171,0.8271,-1.1298,6.7023,-13.8702,0,0,0
-0.4944,-0.01,0.8301,-2.9466,4.1298,-12.7786,0,0,0
-0.5093,-0.0181,0.8354,-4.542,2.4198,-12.2214,0,0,0
-0.49,-0.0161,0.8711,-4.084,0.6183,-10.0687,0,0,0
-0.4878,0.0044,0.8855,-2.084,-0.8855,-8.626,0,0,0
-0.4895,0.0068,0.8882,-0.4656,-1.8244,-7.4504,0,0,0
-0.4893,0.0029,0.8887,-0.8397,-2.4122,-6.3664,0,0,0
-0.4749,0.0156,0.8743,-2.1221,-2.374,-5.8244,0,0,0
-0.4856,0.0178,0.8687,-4.6718,-2.0611,-5.9847,0,0,0
-0.4917,0.0029,0.8774,-6.1298,-1.8779,-6.2595,0,0,0
-0.5073,-0.0183,0.8943,-6.4733,-1.8473,-6.0458,0,0,0
-0.5056,-0.0181,0.8923,-4.9008,-2.1679,-4.1069,0,0,0
-0.4849,-0.0017,0.905,-2.9313,-2.5496,-3.4427,0,0,0
-0.4985,0.0081,0.9236,-2.2824,-1.1298,-3.855,0,0,0
-0.4932,0.0024,0.9031,-0.6489,-0.7863,-3.1679,0,0,0
-0.4976,0.0078,0.8984,-0.1832,-0.7634,-3.0611,0,0,0
-0.5022,-0.0037,0.9138,0.9313,-0.8779,-2.8321,0,0,0
-0.5081,-0.0054,0.8916,0.2595,-1.1679,-1.3893,0,0,0
-0.4895,0.0098,0.9126,0.0382,-1.0382,-1.1832,0,0,0
-0.4883,0.0212,0.9121,-1.9084,0.7557,-1.626,0,0,0
-0.4968,0.0024,0.8782,-2.1985,0.3588,-1.9237,0,0,0
-0.5,0.0,0.8826,-1.458,-0.7023,-1.6412,0,0,0
-0.4895,-0.0029,0.9009,-0.8244,-0.8473,-0.7939,0,0,0
-0.4885,0.0146,0.8833,-0.2824,-1.2748,-0.4275,0,0,0
-0.4846,0.0142,0.8923,-0.4122,-2.0458,-0.771,0,0,0
-0.4927,0.0173,0.9043,-1.0992,-1.6489,-1.2977,0,0,0
-0.4854,0.0012,0.906,-1.7252,-1.2901,-1.2977,0,0,0
-0.4802,0.0076,0.8938,-1.687,-1.4122,-1.0916,0,0,0
-0.4878,0.0085,0.8948,-1.7481,-2.4656,-0.855,0,0,0
-0.4758,0.0081,0.9009,-1.5344,-2.9389,-1.1069,0,0,0
-0.467,0.0308,0.8997,-2.8626,-2.5802,-1.3053,0,0,0
-0.4746,0.0276,0.9028,-4.0763,-2.3359,-2.3435,0,0,0
-0.4824,0.0054,0.9294,-4.5115,-1.3664,-3.1145,0,0,0
-0.4922,-0.0122,0.916,-2.6718,-1.2748,-2.7023,0,0,0
-0.4929,-0.0229,0.9104,-0.9618,-2.1679,-2.1374,0,0,0
-0.4778,0.0005,0.9011,-0.7252,-1.1145,-1.7252,0,0,0
-0.4856,0.0066,0.8945,-1.9389,-1.0,-2.9847,0,0,0
-0.4963,-0.009,0.8867,-1.4504,-0.5725,-3.2061,0,0,0
-0.4805,0.0012,0.8965,-0.855,-2.0076,-3.0229,0,0,0
-0.4802,0.0186,0.916,-0.0763,-1.0992,-3.6412,0,0,0
-0.4739,0.0222,0.9153,-0.1908,-0.4809,-4.374,0,0,0
-0.4797,0.0168,0.9033,-0.3435,0.313,-5.9466,0,0,0
-0.4731,0.0217,0.9065,-0.0305,0.5038,-6.9924,0,0,0
-0.4607,0.0364,0.9312,-0.7557,2.313,-8.8244,0,0,0
-0.4561,0.0615,0.9373,-0.4656,5.1298,-11.6412,0,0,0
-0.4509,0.0581,0.9346,-1.3282,7.4809,-14.9313,0,0,0
-0.4368,0.0725,0.9509,-1.7176,11.8015,-18.1374,0,0,0
-0.4297,0.0713,0.9561,-2.6718,15.6641,-22.1603,0,0,0
-0.4402,0.0974,0.989,-4.3664,20.1527,-26.9084,0,0,0
-0.4268,0.0876,0.9814,-7.5649,24.5573,-32.3206,0,0,0
-0.4543,0.0276,0.9905,-8.3206,28.5573,-36.9084,0,0,0
-0.5315,-0.0383,0.981,-7.5878,32.7176,-41.7099,0,0,0
-0.5457,-0.0984,0.9475,-1.3588,35.1527,-40.6031,0,0,0
-0.5142,-0.0674,0.9187,5.7252,35.4733,-37.5649,0,0,0
-0.5232,0.009,0.9211,9.771,35.5725,-40.0534,0,0,0
-0.5078,0.0037,0.917,10.6489,37.0458,-41.542,0,0,0
-0.5198,0.0107,0.873,12.1527,37.8931,-42.7176,0,0,0
-0.5234,-0.0012,0.8977,12.8244,39.4885,-44.855,0,0,0
-0.5469,-0.03,0.8787,12.1145,41.6107,-42.8321,0,0,0
-0.5522,-0.0391,0.877,7.3588,42.4733,-41.4122,0,0,0
-0.5994,-0.0422,0.7878,4.7863,40.3435,-38.229,0,0,0
-0.5916,-0.0391,0.8027,4.771,35.0,-36.6718,0,0,0
-0.575,-0.0427,0.7891,7.6412,28.313,-33.458,0,0,0
-0.5549,-0.0259,0.8169,7.7786,25.1832,-31.687,0,0,0
-0.5588,-0.0327,0.8225,6.6183,24.8473,-30.7023,0,0,0
-0.5671,-0.0298,0.8079,5.8321,21.4427,-32.2977,0,0,0
-0.5886,-0.1038,0.8579,3.3893,24.1908,-33.1221,0,0,0
-0.5928,-0.1196,0.814,3.2595,23.5344,-30.9313,0,0,0
-0.5837,-0.1243,0.803,5.8779,21.9542,-28.8702,0,0,0
-0.5793,-0.0862,0.7344,10.5725,16.8931,-28.8626,0,0,0
-0.5881,-0.085,0.8074,10.229,15.6489,-28.7405,0,0,0
-0.5686,-0.0864,0.8101,10.1985,14.9008,-28.0382,0,0,0
-0.5703,-0.064,0.801,10.7863,14.0763,-29.6183,0,0,0
-0.5935,-0.0933,0.7991,11.5573,14.1145,-30.1298,0,0,0
-0.585,-0.0752,0.8188,11.6947,13.5954,-30.2061,0,0,0
-0.5862,-0.075,0.8096,9.7252,14.6336,-30.8321,0,0,0
-0.6038,-0.0642,0.77,8.7328,12.5267,-30.3817,0,0,0
-0.6021,-0.0637,0.7949,8.3053,10.4275,-30.229,0,0,0
-0.6003,-0.0593,0.822,9.1985,9.0458,-30.4885,0,0,0
-0.6128,-0.064,0.7927,9.1527,8.8626,-29.7405,0,0,0
-0.6155,-0.0789,0.8176,7.916,8.2519,-27.3664,0,0,0
-0.6125,-0.0608,0.8071,7.2366,8.2977,-25.8397,0,0,0
-0.6204,-0.0776,0.7793,5.0382,7.0,-25.4733,0,0,0
-0.634,-0.082,0.7664,4.5802,4.9466,-25.5573,0,0,0
-0.6316,-0.1177,0.8132,2.9924,6.5344,-24.3359,0,0,0
-0.6389,-0.1108,0.7754,3.0687,5.5878,-22.6565,0,0,0
-0.6211,-0.1118,0.8015,5.1908,3.9542,-21.0076,0,0,0
-0.625,-0.1045,0.7747,4.4122,3.8321,-19.374,0,0,0
-0.6304,-0.106,0.7788,4.4962,2.2519,-16.9542,0,0,0
-0.6143,-0.0942,0.8123,2.6107,4.1527,-16.374,0,0,0
-0.6096,-0.0938,0.7881,3.6412,4.7939,-16.9924,0,0,0
-0.6201,-0.1252,0.7961,2.6565,5.0763,-15.9389,0,0,0
-0.627,-0.1306,0.7983,3.5573,3.6183,-15.626,0,0,0
-0.6235,-0.1367,0.79,3.1374,3.0687,-14.0458,0,0,0
-0.624,-0.1477,0.7651,3.1527,-0.5191,-10.7481,0,0,0
-0.616,-0.1375,0.7581,2.7863,-2.9618,-8.6031,0,0,0
-0.6296,-0.1411,0.7686,1.9695,-3.7099,-8.4351,0,0,0
-0.6467,-0.1587,0.7476,1.8168,-6.4656,-6.5191,0,0,0
-0.6125,-0.1455,0.78,2.8244,-8.8015,-4.0534,0,0,0
-0.5332,-0.0847,0.7998,-0.8779,-2.8702,-5.0153,0,0,0
-0.6199,-0.1194,0.7578,-2.6641,-5.5954,-4.6489,1,0,0
-0.6343,-0.1545,0.7971,-3.0382,-4.4733,-1.1221,1,0,0
-0.6216,-0.1113,0.7705,-3.6794,-7.3817,-0.5115,1,0,0
-0.6111,-0.093,0.8215,-3.8168,-7.8397,-0.2366,1,0,0
-0.6223,-0.0989,0.7986,-4.5725,-9.0611,1.4122,1,0,0
-0.6431,-0.1248,0.8167,-3.7099,-11.4198,2.542,1,0,0
-0.6257,-0.1523,0.8293,-0.7557,-11.1374,3.1298,1,0,0
-0.592,-0.0845,0.8308,-0.5115,-7.2214,1.5191,1,0,0
-0.603,-0.0471,0.842,-2.2443,-3.9237,1.2519,1,0,0
-0.606,-0.0581,0.8987,-2.4733,0.2443,-0.0458,1,0,0
-0.6013,-0.0708,0.8711,-2.0992,0.4962,-1.3359,1,0,0
-0.6133,-0.0686,0.8687,-1.1069,1.2977,-2.8244,1,0,0
-0.604,-0.0825,0.8701,-1.1298,2.916,-3.6794,1,0,0
-0.5969,-0.0554,0.8315,-0.4351,3.6718,-3.9008,0,0,0
-0.5979,-0.074,0.8367,-2.2595,3.626,-5.1298,0,0,0
-0.6052,-0.1072,0.832,-2.7786,3.771,-5.5649,0,0,0
-0.604,-0.1121,0.824,-0.8244,3.7557,-7.5725,0,0,0
-0.604,-0.1301,0.8357,-0.6412,3.9618,-9.3817,0,0,0
-0.6123,-0.1255,0.8191,-3.1756,5.1679,-9.6947,0,0,0
-0.6016,-0.1147,0.8171,-5.2443,7.8244,-10.6794,0,0,0
-0.6216,-0.1106,0.7898,-6.8397,7.5191,-12.7786,0,0,0
-0.6335,-0.1133,0.8125,-6.4809,4.0534,-13.3359,0,0,0
-0.627,-0.1133,0.8472,-3.4504,3.8092,-12.5802,0,0,0
-0.6145,-0.0813,0.8333,-2.8931,4.1985,-12.7023,0,0,0
-0.5967,-0.0696,0.8264,-4.084,5.855,-14.1069,0,0,0
-0.6016,-0.0774,0.8245,-7.0305,7.7863,-16.145,0,0,0
-0.6165,-0.1123,0.8174,-8.4504,7.7099,-17.4733,0,0,0
-0.6252,-0.1294,0.8059,-8.3588,7.3359,-17.3359,0,0,0
-0.6255,-0.1309,0.8057,-8.0076,7.4656,-17.4351,0,0,0
-0.6089,-0.1091,0.8076,-8.374,7.8473,-18.0992,0,0,0
-0.584,-0.0837,0.8176,-8.8092,9.2137,-18.7481,0,0,0
-0.6025,-0.0894,0.8259,-11.6107,11.626,-20.6412,0,0,0
-0.6143,-0.1104,0.8103,-14.4351,13.3817,-22.2366,0,0,0
-0.5957,-0.0952,0.834,-14.6489,13.9466,-23.1069,0,0,0
-0.6057,-0.1287,0.833,-15.3511,15.6031,-23.9847,0,0,0
-0.5964,-0.1143,0.8364,-13.4351,18.8855,-25.1221,0,0,0
-0.5994,-0.1462,0.8228,-12.6794,20.7328,-25.1298,0,0,0
-0.6057,-0.1616,0.8052,-12.3588,22.4198,-24.8855,0,0,0
-0.625,-0.1973,0.7595,-8.1603,21.0763,-22.8855,0,0,0
-0.6392,-0.1929,0.7119,-4.6107,19.6565,-22.4198,0,0,0
-0.6184,-0.1733,0.7822,-5.6183,19.4962,-21.8244,0,0,0
-0.6143,-0.1506,0.7725,-6.7481,20.0382,-22.4427,0,0,0
-0.6284,-0.1812,0.7568,-6.5725,18.1756,-21.8702,0,0,0
-0.6506,-0.1899,0.7527,-5.7099,16.313,-19.7863,0,0,0
-0.6553,-0.2012,0.751,-5.1832,14.8779,-18.2443,0,0,0
-0.6484,-0.1902,0.7349,-5.7481,13.4504,-16.1298,0,0,0
-0.6294,-0.1902,0.7366,-7.0229,12.0916,-15.0,0,0,0
-0.6233,-0.1936,0.7158,-7.0,9.9542,-15.0611,0,0,0
-0.6438,-0.2109,0.7227,-7.3282,9.2366,-14.8092,0,0,0
-0.6606,-0.2361,0.7166,-7.8397,7.626,-13.6107,0,0,0
-0.6711,-0.2524,0.7205,-6.1679,5.1221,-11.8244,0,0,0
-0.6736,-0.2607,0.7219,-3.4962,2.542,-9.3206,0,0,0
-0.6372,-0.2334,0.7249,-1.313,0.2977,-6.3969,0,0,0
-0.6177,-0.1729,0.7058,-2.6412,-1.1298,-4.9466,0,0,0
-0.6279,-0.1846,0.7593,-4.374,0.2443,-4.8779,0,0,0
-0.6372,-0.2222,0.7356,-5.4046,0.0229,-5.0,0,0,0
-0.6626,-0.2542,0.7261,-4.3969,0.626,-4.8473,0,0,0
-0.6577,-0.2488,0.7207,-1.9847,-0.0611,-4.0534,0,0,0
-0.635,-0.2058,0.7563,-1.2901,0.0,-4.2061,0,0,0
-0.6345,-0.1904,0.7544,-2.2824,0.2901,-4.8321,0,0,0
-0.6436,-0.1997,0.7712,-2.0076,1.1221,-4.7405,0,0,0
-0.6531,-0.2061,0.7742,-0.3511,0.9237,-4.5191,0,0,0
-0.6609,-0.2124,0.7695,0.8397,1.5954,-4.0458,0,0,0
-0.6628,-0.2141,0.75,1.3969,1.313,-4.2366,0,0,0
-0.6572,-0.2129,0.7417,2.3053,1.0763,-3.9847,0,0,0
-0.6458,-0.1956,0.7339,2.6641,-1.0458,-4.0305,0,0,0
-0.6506,-0.1375,0.6311,8.1679,-4.9008,-4.9466,0,0,0
-0.6338,-0.2134,0.7668,4.7939,1.6718,-5.084,0,0,0
-0.6548,-0.2026,0.7966,3.8779,2.0763,-3.7634,0,0,0
-0.6526,-0.2205,0.7283,5.374,1.1832,-2.374,0,0,0
-0.6565,-0.2097,0.7207,7.2901,-0.2672,-2.3206,0,0,0
-0.6353,-0.1675,0.7148,12.3282,-3.1908,-2.8321,0,0,0
-0.6333,-0.2114,0.7354,7.2824,0.2137,-2.1221,0,0,0
-0.6362,-0.1863,0.7366,5.3282,-0.229,-1.8092,0,0,0
-0.6443,-0.2144,0.729,4.9771,-0.0992,-1.8397,0,0,0
-0.6479,-0.2224,0.7185,5.2366,-2.8015,-0.3206,0,0,0
-0.6504,-0.21,0.7271,4.3588,-5.0611,0.6031,0,0,0
-0.6587,-0.2263,0.7124,4.0382,-7.9313,1.374,0,0,0
-0.6563,-0.2224,0.7031,4.0992,-10.3206,2.3511,0,0,0
-0.6592,-0.2183,0.7366,4.8244,-11.3435,2.8779,0,0,0
-0.647,-0.2087,0.7371,6.6031,-11.5267,4.5038,0,0,0
-0.6289,-0.1814,0.7463,6.084,-11.8244,5.8397,0,0,0
-0.6221,-0.1655,0.76,4.1679,-11.2137,7.5573,0,0,0
-0.6052,-0.1604,0.7517,2.0687,-11.0992,8.5954,0,0,0
-0.6223,-0.1978,0.7373,1.4656,-11.8092,9.5573,0,0,0
-0.6309,-0.2239,0.738,1.7176,-12.916,11.1603,0,0,0
-0.6426,-0.2366,0.7295,2.8855,-15.9008,13.5267,0,0,0
-0.6465,-0.2637,0.7139,4.7557,-18.5649,17.2977,0,0,0
-0.6423,-0.2725,0.7117,6.4809,-21.8779,22.0687,0,0,0
-0.6582,-0.2664,0.7068,7.771,-24.916,25.7328,0,0,0
-0.6404,-0.2566,0.7268,9.458,-29.7176,31.5573,0,0,0
-0.6277,-0.2246,0.7463,9.3588,-30.4046,35.8015,0,0,0
-0.6016,-0.1802,0.7446,8.1527,-33.8702,38.374,0,0,0
-0.627,-0.1956,0.7346,6.0916,-38.2214,40.7786,0,0,0
-0.6494,-0.2395,0.7124,4.3053,-46.3282,46.9389,0,0,0
-0.6519,-0.2361,0.7356,6.2595,-56.4962,53.9771,0,0,0
-0.6252,-0.2434,0.7463,7.0534,-63.7557,59.7023,0,0,0
-0.5957,-0.2231,0.759,6.2977,-68.0382,64.7557,0,0,0
-0.5618,-0.1863,0.7654,4.0458,-70.8244,69.1298,0,0,0
-0.5593,-0.1506,0.8298,-2.2672,-70.9466,71.3359,0,0,0
-0.5286,-0.1372,0.8699,-11.4427,-67.2137,73.9084,0,0,0
-0.5315,-0.1719,0.8005,-13.5038,-64.4198,73.6489,0,0,0
-0.5369,-0.2429,0.9597,-22.7863,-61.4809,75.5038,0,0,0
-0.5142,-0.1641,0.8303,-12.6412,-60.1908,78.6183,0,0,0
-0.4861,-0.0845,0.8801,-10.3435,-60.4656,78.8397,0,0,0
-0.4641,-0.1067,0.9543,-8.2595,-57.5878,81.0153,0,0,0
-0.4858,-0.0664,0.9617,-6.3511,-54.1679,85.3206,0,0,0
-0.4629,-0.0288,0.9177,-4.9313,-52.5344,85.6412,0,0,0
-0.4773,0.0122,0.9141,-3.8168,-49.0076,80.3893,0,0,0
-0.4368,0.0056,1.0034,-5.3053,-45.0458,77.3435,0,0,0
-0.4841,-0.009,0.9209,-10.5496,-44.4733,79.8931,0,0,0
-0.4866,-0.0261,0.9255,-8.8702,-46.4351,81.0305,0,0,0
-0.4873,-0.0425,0.9233,-5.1221,-47.9618,84.626,0,0,0
-0.4395,-0.0698,1.0261,-7.4809,-47.5115,88.6183,0,0,0
-0.438,-0.0493,0.8809,-2.5115,-50.5496,93.7786,0,0,0
-0.4041,0.0005,0.8899,-1.2137,-55.3893,98.6794,0,0,0
-0.4138,0.0508,0.9006,-5.542,-60.8092,97.4046,0,0,0
-0.3877,0.0532,0.9507,-11.4122,-60.7863,89.397,0,0,0
-0.3906,-0.001,0.8938,-19.1603,-64.5344,88.9008,0,0,0
-0.364,0.0117,0.9956,-23.3282,-64.8855,90.4351,0,0,0
-0.3384,0.0005,1.0364,-29.6718,-60.1603,89.8397,0,0,0
-0.3147,0.0388,1.0791,-37.2137,-58.6107,88.1985,0,0,0
-0.3088,-0.1384,1.0786,-38.313,-54.5802,90.9771,0,0,0
-0.3938,-0.1638,1.0769,-42.687,-47.2061,97.4046,0,0,0
-0.4202,-0.2119,1.0776,-39.3053,-36.4885,110.5573,0,0,0
-0.3401,-0.2332,1.019,-34.229,-30.5496,126.8015,0,0,0
-0.2659,-0.1516,0.9673,-27.9542,-29.1603,140.7405,0,0,0
-0.2034,-0.0505,0.9099,-21.6031,-30.8473,146.2061,0,0,0
-0.2129,0.0215,0.8369,-20.6183,-35.5267,139.458,0,0,0
-0.2485,-0.0049,0.8123,-23.7481,-45.2672,129.916,0,0,0
-0.2422,-0.0894,0.7905,-32.145,-52.9008,126.3435,0,0,0
-0.2148,-0.1096,0.7739,-49.4351,-61.5191,131.3969,0,0,0
-0.2314,-0.085,0.8103,-66.916,-65.5878,138.8397,0,0,0
-0.207,-0.0642,0.9119,-86.3664,-65.1985,144.0534,0,0,0
-0.157,-0.1282,0.8896,-104.5496,-62.7481,151.229,0,0,0
-0.1489,-0.1292,0.9004,-117.0229,-63.3817,159.7023,0,0,0
-0.1028,-0.1338,0.9932,-122.3664,-61.6794,163.0076,0,0,0
-0.0994,-0.0386,1.1155,-121.374,-52.9389,159.3053,0,0,0
-0.125,-0.0134,1.2024,-123.2214,-43.2595,153.2824,0,0,0
-0.1379,-0.0403,1.2305,-126.5115,-32.7634,146.0992,0,0,0
-0.1646,-0.1353,1.1863,-113.6031,-28.8397,144.5725,0,0,0
-0.1509,-0.1919,1.114,-90.855,-32.4046,148.6412,0,0,0
-0.1316,-0.1289,1.0603,-69.6718,-39.3511,150.916,0,0,0
-0.124,-0.0532,1.1321,-54.1527,-43.6336,145.2824,0,0,0
-0.1038,0.0215,1.1035,-36.542,-42.7634,134.771,0,0,0
-0.0579,0.0481,1.1184,-21.2137,-44.2137,124.2824,0,0,0
-0.0623,0.0859,1.0823,-3.2748,-43.3969,112.458,0,0,0
-0.0969,0.0459,1.0505,9.313,-43.5496,99.0153,0,0,0
-0.1226,0.0354,0.9307,16.4046,-44.0305,87.9008,0,0,0
-0.103,0.031,0.8914,13.7099,-49.4809,81.0992,0,0,0
-0.082,0.054,0.9448,9.7328,-54.3588,76.9389,0,0,0
-0.0693,0.074,1.0146,14.5573,-53.3893,71.2519,0,0,0
-0.0513,0.0923,1.0474,19.1679,-52.1069,65.0534,0,0,0
-0.0376,0.0608,1.0461,24.9695,-48.4046,55.8702,0,0,0
-0.0977,0.0454,0.9717,28.6718,-47.5954,48.145,0,0,0
-0.1072,0.0137,0.959,30.3206,-49.8092,42.7252,0,0,0
-0.0735,0.0012,0.9526,27.5114,-53.5496,41.542,0,0,0
-0.0571,0.0088,1.0103,26.8931,-54.7481,40.8321,0,0,0
-0.0212,0.0422,1.0764,29.2748,-54.7405,40.4275,0,0,0
-0.0132,0.1328,1.1355,34.3282,-52.5191,35.1832,0,0,0
0.0374,0.1604,1.1426,35.9924,-47.687,26.8931,0,0,0
0.0569,0.165,1.1028,34.1527,-40.1756,16.1221,0,0,0
0.0364,0.0837,1.0874,27.229,-35.5878,8.4962,0,0,0
0.0093,0.0317,1.0344,22.9771,-33.6641,7.3969,0,0,0
-0.0051,0.0017,1.0698,19.1985,-34.6107,10.0534,0,0,0
-0.0161,0.0322,1.1223,18.8244,-32.9389,12.7099,0,0,0
0.0146,0.0803,1.1709,19.2366,-27.7099,13.3588,0,0,0
0.054,0.1758,1.1924,17.8702,-19.8779,10.3435,0,0,0
0.0798,0.209,1.1841,13.9313,-10.0916,2.0534,0,0,0
0.0813,0.1838,1.1453,11.3664,-1.9313,-8.0153,0,0,0
0.0459,0.1077,1.0374,11.2214,-0.7863,-15.8473,0,0,0
0.0037,0.0208,0.9832,10.6107,-5.6031,-17.0458,0,0,0
-0.03,-0.0186,0.9846,7.458,-12.1756,-12.7786,0,0,0
-0.0271,-0.0156,1.0725,4.916,-14.3053,-5.9466,0,0,0
-0.0161,0.0156,1.1428,2.7405,-8.1221,-0.2061,0,0,0
0.0112,0.0535,1.1433,-0.5878,0.8397,2.4962,0,0,0
0.0356,0.0911,1.0847,-4.145,8.0,3.1145,0,0,0
0.0315,0.1245,1.0464,-6.4198,9.8397,-1.0992,0,0,0
0.0159,0.1221,1.0168,-5.4885,7.2519,-8.1527,0,0,0
0.0122,0.0916,1.0308,-2.0763,3.3969,-12.8779,0,0,0
-0.0029,0.0354,1.0334,1.0916,-0.0687,-15.2977,0,0,0
-0.0278,0.0024,1.0239,4.313,-2.3053,-13.626,0,0,0
-0.0264,-0.0181,1.0383,4.9771,-4.0916,-9.0,0,0,0
-0.0269,-0.0029,1.0581,7.374,-3.7099,-3.7634,0,0,0
-0.0139,0.0232,1.0945,7.0916,-1.8321,-1.2214,0,0,0
0.0061,0.0374,1.0674,5.8397,2.2443,-0.313,0,0,0
0.0117,0.0522,1.0413,1.1679,5.4962,-0.9847,0,0,0
0.0051,0.0471,1.0215,-3.8092,7.2214,-1.1145,0,0,0
0.0117,0.0452,1.0391,-4.4198,7.7786,-1.0916,0,0,0
-0.0056,0.0552,1.042,-1.0153,6.6565,-1.374,0,0,0
0.0024,0.0498,1.0337,3.2519,5.084,-1.7252,0,0,0
0.0088,0.063,0.9954,4.374,3.2443,-1.855,0,0,0
0.0117,0.0659,0.9851,2.1985,1.687,-2.626,0,0,0
0.0076,0.0537,1.002,-1.8015,2.7176,-3.4733,0,0,0
-0.0029,0.0269,1.0188,-6.0229,3.8779,-2.7863,0,0,0
-0.012,0.0117,1.0364,-6.8779,4.8626,-0.229,0,0,0
-0.0188,0.0244,1.0322,-4.2519,5.4733,2.3969,0,0,0
-0.0142,0.0457,1.0171,-0.7023,4.4733,3.4046,0,0,0
-0.0071,0.0815,0.9885,1.3511,2.084,2.374,0,0,0
0.0115,0.0947,0.9912,0.4885,-0.1527,-0.9389,0,0,0
0.0134,0.0991,1.0081,-0.542,-0.5954,-4.687,0,0,0
0.0117,0.074,1.0249,-2.4427,-0.0458,-7.0382,0,0,0
-0.0085,0.0515,1.0393,-3.7099,1.1069,-7.4351,0,0,0
-0.0168,0.0251,1.0288,-4.1756,2.5496,-6.542,0,0,0
-0.0181,0.0237,1.0127,-3.771,2.8626,-4.2672,0,0,0
-0.0242,0.0425,1.0042,-2.1832,1.4809,-2.5954,0,0,0
-0.0261,0.0449,0.999,0.0992,-0.7023,-2.3359,0,0,0
-0.0249,0.0571,0.9983,2.7023,-2.6794,-2.7328,0,0,0
-0.0254,0.0581,0.9983,2.7481,-4.3817,-3.1908,0,0,0
-0.0237,0.0522,1.0193,1.8779,-5.3664,-3.0534,0,0,0
-0.0186,0.0513,1.0332,-0.8092,-4.8626,-2.4809,0,0,0
-0.0073,0.0564,1.0457,-2.916,-2.3969,-1.7939,0,0,0
-0.0078,0.0574,1.0369,-4.4809,0.2519,-1.7481,0,0,0
-0.0093,0.0522,1.0339,-2.8015,0.5038,-1.855,0,0,0
-0.0164,0.0513,1.0176,0.0763,-1.6031,-1.6336,0,0,0
-0.0095,0.0637,1.0237,2.9847,-4.6336,-1.7099,0,0,0
-0.0056,0.0811,1.0347,3.3359,-5.458,-2.458,0,0,0
0.0071,0.0762,1.0505,2.0076,-4.4809,-4.0153,0,0,0
0.0024,0.0671,1.0635,0.2214,-2.5878,-4.7634,0,0,0
-0.0122,0.0496,1.0623,-1.5725,-0.542,-4.8626,0,0,0
-0.0156,0.0266,1.0684,-2.084,1.374,-3.2595,0,0,0
-0.0142,0.031,1.0505,-1.7634,2.7634,-1.1527,0,0,0
-0.0032,0.0649,1.0613,-1.5802,3.5267,0.3359,0,0,0
0.0049,0.0918,1.0503,-0.1679,4.229,-1.4656,0,0,0
-0.0007,0.1013,1.0293,1.0076,3.1985,-5.145,0,0,0
-0.0024,0.073,1.0244,1.4427,1.6336,-7.7405,0,0,0
-0.0173,0.0557,1.03,1.771,-0.2137,-8.1527,0,0,0
-0.0215,0.0403,1.0244,1.3664,-0.7252,-7.3511,0,0,0
-0.0222,0.0317,1.0483,0.1069,0.4809,-5.8473,0,0,0
-0.031,0.0376,1.0488,-1.0916,2.2748,-4.1756,0,0,0
-0.0146,0.0332,1.0576,-1.4809,4.2824,-3.0153,0,0,0
-0.0186,0.0493,1.0432,-0.5573,6.2061,-2.1145,0,0,0
-0.0122,0.0581,1.009,-0.5725,5.8397,-2.1908,0,0,0
0.0002,0.0713,1.0066,-1.1298,4.7176,-2.9771,0,0,0
-0.0129,0.0627,1.0012,-0.3359,2.6947,-4.5038,0,0,0
-0.0129,0.0518,1.0139,-0.4046,1.313,-4.8244,0,0,0
-0.022,0.0322,1.0115,-1.8397,0.7405,-3.7405,0,0,0
-0.0249,0.0298,1.0293,-3.458,1.4733,-1.5267,0,0,0
-0.0203,0.0356,1.0435,-3.7023,3.2366,-0.1145,0,0,0
-0.0156,0.0493,1.042,-3.2977,4.9924,1.0611,0,0,0
-0.0203,0.0649,1.0422,-2.4885,5.3511,-0.0687,0,0,0
-0.0142,0.0686,1.0352,-1.3282,5.5878,-1.2519,0,0,0
-0.0129,0.0603,1.0127,-0.1374,4.6031,-2.6947,0,0,0
-0.0176,0.0598,0.9954,-0.9618,3.7634,-3.3893,0,0,0
-0.0281,0.0332,1.0078,-3.7023,2.5878,-3.1603,0,0,0
-0.0452,0.009,1.0256,-6.1527,2.4809,-1.1679,0,0,0
-0.0486,0.0037,1.0576,-7.0763,4.3969,2.145,0,0,0
-0.0439,0.0229,1.0757,-6.9008,7.2595,4.7863,0,0,0
-0.0364,0.0403,1.0671,-4.9847,9.6107,6.4504,0,0,0
-0.0171,0.0693,1.0095,-2.4962,9.5267,6.2137,0,0,0
-0.0188,0.0945,0.9907,-0.7634,6.9237,3.6107,0,0,0
-0.021,0.1067,0.9868,-0.0611,2.8779,-0.4427,0,0,0
-0.0149,0.0957,1.0059,-0.6031,0.9466,-3.8092,0,0,0
-0.0149,0.0723,1.0269,-1.6412,1.5496,-5.1985,0,0,0
-0.0481,0.0408,1.0398,-2.3053,3.2901,-5.5344,0,0,0
-0.0515,0.0168,1.019,-2.9542,4.5267,-2.6107,0,0,0
-0.0488,0.0117,1.0027,-3.1985,4.5038,0.8702,0,0,0
-0.0449,0.0425,0.9907,-1.9389,2.5725,3.145,0,0,0
-0.0352,0.0735,1.0012,-0.855,-0.5649,2.4962,0,0,0
-0.0276,0.0999,1.0276,0.5496,-1.9389,-0.7863,0,0,0
-0.0212,0.0854,1.0344,-0.7176,-1.7557,-4.3511,0,0,0
-0.032,0.043,1.0352,-3.5725,0.1908,-5.4809,0,0,0
-0.0566,0.0181,1.0371,-5.5802,1.8702,-3.855,0,0,0
-0.0518,0.0012,1.0425,-5.5725,2.9771,-0.0763,0,0,0
-0.0586,0.0313,1.0432,-2.4275,3.3664,2.3053,0,0,0
-0.04,0.0552,1.021,1.687,1.9695,2.8168,0,0,0
-0.0276,0.0684,0.9983,3.5649,-0.9466,0.7252,0,0,0
-0.0437,0.0571,0.9978,2.4962,-3.1374,-1.2824,0,0,0
-0.0471,0.0186,1.0188,0.2366,-3.2901,-1.2977,0,0,0
-0.0627,-0.0151,1.0339,-1.9389,-1.9466,2.4962,0,0,0
-0.0657,-0.0181,1.0601,-3.4351,0.0611,7.5496,0,0,0
-0.0498,0.0063,1.0652,-3.4275,2.7634,11.9771,0,0,0
-0.0403,0.0508,1.0344,-3.5496,4.2977,14.0611,0,0,0
-0.0249,0.0867,1.0134,-3.229,3.6107,12.1298,0,0,0
-0.0237,0.0942,1.0042,-3.3206,2.3359,9.2595,0,0,0
-0.0266,0.0928,1.0015,-3.4504,1.3282,6.6031,0,0,0
-0.0242,0.0769,1.021,-4.3817,1.0534,5.1069,0,0,0
-0.0432,0.0449,1.0203,-4.6031,1.1679,4.4198,0,0,0
-0.0623,0.0137,1.0364,-6.0458,0.6794,4.8626,0,0,0
-0.0586,-0.0127,1.0422,-4.8779,1.2595,9.084,0,0,0
-0.0498,0.0237,1.0481,-4.1145,2.2214,12.7939,0,0,0
-0.0459,0.0664,1.0317,-1.626,3.4885,13.5267,0,0,0
-0.0378,0.084,1.0105,-1.8855,3.0611,11.4962,0,0,0
-0.0366,0.0762,1.0112,-3.3511,1.9924,8.5496,0,0,0
-0.0474,0.054,1.012,-4.3282,1.5038,6.687,0,0,0
-0.0444,0.0393,1.0332,-4.8473,0.7863,6.3817,0,0,0
-0.054,0.0427,1.0488,-3.5267,1.0382,7.3206,0,0,0
-0.0505,0.0378,1.0349,-3.3359,1.7786,7.2977,0,0,0
-0.0388,0.0591,1.0283,-2.7252,1.3588,7.9389,0,0,0
-0.0352,0.0913,1.0349,-2.2137,0.542,6.5802,0,0,0
-0.0222,0.1121,1.0393,-1.0,0.1679,2.9847,0,0,0
-0.0293,0.0967,1.0293,-0.8473,0.7405,-1.3588,0,0,0
-0.0344,0.0476,1.0205,-3.4275,0.5191,-3.0763,0,0,0
-0.0642,-0.0017,1.0146,-5.0305,0.5802,-1.7252,0,0,0
-0.0723,-0.0317,1.0374,-5.2366,-0.0458,3.1374,0,0,0
-0.062,-0.0056,1.0605,-1.855,0.3969,9.0,0,0,0
-0.0427,0.0581,1.0535,1.2061,0.3053,10.5649,0,0,0
-0.0205,0.1245,1.0417,2.1145,0.771,7.5954,0,0,0
-0.0037,0.136,1.0234,0.458,1.2443,1.6183,0,0,0
-0.0198,0.0989,1.0181,-2.0687,1.2061,-4.4351,0,0,0
-0.0544,0.0242,1.0105,-2.9084,0.4504,-5.313,0,0,0
-0.0706,-0.0391,1.0212,-3.9542,-0.1985,-1.0992,0,0,0
-0.0752,-0.0461,1.0403,-4.3053,1.0153,6.4656,0,0,0
-0.0583,-0.0049,1.05,-5.3664,3.8473,12.8092,0,0,0
-0.0408,0.0576,1.0476,-4.1985,6.5496,14.1832,0,0,0
-0.0383,0.1067,1.0146,-2.4046,5.8473,10.374,0,0,0
-0.0303,0.1047,0.9744,-0.9466,2.7786,5.145,0,0,0
-0.0393,0.0667,0.9739,-0.7405,-0.3206,1.0382,0,0,0
-0.0522,0.032,0.9788,-1.0229,-3.2672,0.8092,0,0,0
-0.053,0.0046,1.0222,-2.4122,-4.0229,3.5878,0,0,0
-0.0618,-0.0078,1.0522,-3.7939,-2.1069,6.1679,0,0,0
-0.0696,-0.002,1.0476,-5.8244,1.2061,10.3282,0,0,0
-0.0588,0.0239,1.0386,-7.1756,4.5344,13.7863,0,0,0
-0.0483,0.0579,1.0276,-7.6183,5.6718,14.4198,0,0,0
-0.0344,0.0757,1.0178,-6.0916,4.2214,12.0229,0,0,0
-0.0354,0.0823,1.0146,-3.9618,0.916,8.458,0,0,0
-0.0471,0.062,1.0251,-2.6031,-1.2443,5.7023,0,0,0
-0.0581,0.0366,1.0332,-2.8015,-1.2443,5.5344,0,0,0
-0.0618,0.011,1.0408,-3.9466,0.5573,7.4122,0,0,0
-0.0605,0.02,1.03,-5.7863,2.3359,10.5802,0,0,0
-0.0522,0.0527,1.0444,-6.4504,2.9084,11.229,0,0,0
-0.0439,0.0806,1.0381,-6.0534,2.6489,8.6412,0,0,0
-0.05,0.0708,1.0383,-4.8321,1.7939,4.5344,0,0,0
-0.0732,0.0237,1.0249,-4.4427,1.0687,2.9084,0,0,0
-0.075,0.0059,1.031,-4.8473,0.7176,5.145,0,0,0
-0.0674,0.01,1.0505,-3.9924,1.1374,8.0305,0,0,0
-0.0559,0.0249,1.0413,-2.2901,1.4962,8.9466,0,0,0
-0.0637,0.0295,1.0374,-0.9008,1.1221,8.1603,0,0,0
-0.0603,0.0339,1.019,-0.2366,-0.3282,8.3282,0,0,0
-0.052,0.0498,1.0151,-0.3282,-0.7634,8.6718,0,0,0
-0.053,0.0659,1.0347,-0.2672,0.1832,8.1756,0,0,0
-0.0508,0.0701,1.0288,0.1221,1.0076,6.1832,0,0,0
-0.052,0.0747,1.0095,1.0916,0.8702,4.0992,0,0,0
-0.0613,0.0579,0.9924,0.4656,-1.0,2.5878,0,0,0
-0.0701,0.04,1.0007,-0.0305,-2.1908,1.7557,0,0,0
-0.0735,0.0229,1.009,-0.7481,-3.0382,3.1145,0,0,0
-0.0674,0.0176,1.0249,-0.8321,-3.3282,5.4351,0,0,0
-0.0664,0.0447,1.0347,-0.313,-4.1221,7.0534,0,0,0
-0.0549,0.0662,1.0464,0.8626,-4.3664,6.7252,0,0,0
-0.0364,0.0769,1.0554,2.374,-3.2214,5.0,0,0,0
-0.0435,0.084,1.0244,2.5115,-1.5954,2.6641,0,0,0
-0.0457,0.0605,0.9956,1.2137,-2.1908,2.2443,0,0,0
-0.0544,0.0591,1.0022,-0.1832,-2.7252,2.4733,0,0,0
-0.0498,0.072,1.0376,0.8931,-3.8931,2.5725,0,0,0
-0.0498,0.0867,1.0471,3.7252,-3.7481,0.7252,0,0,0
-0.0491,0.0813,1.0081,4.2366,-4.1908,-1.0,0,0,0
-0.053,0.0703,1.0012,2.4504,-4.0382,-1.229,0,0,0
-0.0566,0.0723,1.0112,-0.2214,-3.0382,-1.1221,0,0,0
-0.0498,0.0742,1.0071,0.2061,-3.2824,-1.1069,0,0,0
-0.0408,0.0847,1.0039,1.8702,-5.3511,-1.3664,0,0,0
-0.0417,0.0845,1.0078,3.7099,-7.9084,-3.7023,0,0,0
-0.0432,0.0742,1.0176,4.4656,-9.4046,-4.3359,0,0,0
-0.0342,0.0684,1.0469,3.5115,-9.1069,-3.3435,0,0,0
-0.0317,0.0725,1.083,2.5573,-6.0534,-2.2977,0,0,0
-0.0356,0.0806,1.073,2.7328,-2.4275,-2.1908,0,0,0
-0.0359,0.0791,1.042,0.6718,-1.084,-1.8626,0,0,0
-0.0313,0.0732,1.0457,-0.8931,-0.9466,-1.4504,0,0,0
-0.0261,0.0813,1.0476,-1.3435,-0.5954,-2.0763,0,0,0
-0.0437,0.0452,1.0491,1.1298,-1.9847,-3.0763,0,0,0
-0.0481,0.0498,1.0669,4.3664,-2.6183,-1.2672,0,0,0
-0.0337,0.0779,1.0713,7.0687,-3.9771,-1.6794,0,0,0
-0.0332,0.0828,1.072,5.8855,-1.626,-4.3435,0,0,0
-0.0378,0.0532,1.0522,2.0305,1.1527,-6.6641,0,0,0
-0.0513,0.0371,1.0498,-0.4504,3.8931,-5.1374,0,0,0
-0.0386,0.064,1.033,-0.0458,4.5649,-2.8702,0,0,0
-0.0286,0.0862,1.0168,1.0076,4.313,-3.9389,0,0,0
-0.0225,0.0876,1.0117,2.7252,3.8931,-6.229,0,0,0
-0.0498,0.0708,1.0039,4.5191,2.9695,-7.4122,0,0,0
-0.0391,0.054,1.0195,7.6183,0.1679,-5.1527,0,0,0
-0.0386,0.0754,1.0112,8.0611,-0.8244,-4.5115,0,0,0
-0.0256,0.0938,1.0198,6.5496,-1.8473,-5.458,0,0,0
-0.022,0.0825,1.0417,3.0229,-0.0153,-6.9618,0,0,0
-0.0447,0.0698,1.0356,-0.3969,2.6947,-7.313,0,0,0
-0.0479,0.0571,1.032,-2.6183,4.0153,-6.1985,0,0,0
-0.0571,0.0466,1.0312,-1.8015,5.5344,-5.4198,0,0,0
-0.0728,0.0469,1.0051,0.771,4.2595,-4.4962,0,0,0
-0.0713,0.0371,0.9939,2.5038,1.1298,-3.7328,0,0,0
-0.0747,0.0398,0.9929,4.1832,-1.9008,-2.3359,0,0,0
-0.071,0.0461,1.0081,4.7863,-2.9771,-0.8473,0,0,0
-0.0671,0.0669,1.0188,5.1603,-1.9924,0.3435,0,0,0
-0.0571,0.0874,1.033,4.7252,-1.542,0.458,0,0,0
-0.0491,0.0947,1.0164,4.0,-0.4504,-1.2214,0,0,0
-0.0706,0.0469,1.0232,2.1985,-2.0611,-1.3435,0,0,0
-0.0715,0.0322,1.031,2.0687,-0.0458,1.5649,0,0,0
-0.0588,0.0479,1.0498,2.1527,0.9771,4.7634,0,0,0
-0.0447,0.052,1.0278,1.313,2.3282,6.7786,0,0,0
-0.0576,0.0757,1.011,1.0076,2.5038,6.6718,0,0,0
-0.0454,0.0664,1.021,0.4809,1.5115,5.8473,0,0,0
-0.0542,0.0608,1.0417,0.8779,2.0458,5.2824,0,0,0
-0.0513,0.0449,1.0471,0.9008,2.2824,6.7863,0,0,0
-0.0498,0.0527,1.0491,1.3893,3.8473,8.5573,0,0,0
-0.0547,0.0579,1.0469,0.4885,6.2519,9.4733,0,0,0
-0.0454,0.0686,1.0273,0.1374,6.7328,10.6031,0,0,0
-0.0417,0.0652,1.031,0.3206,6.313,12.1145,0,0,0
-0.0488,0.0151,1.0168,1.1298,1.9542,15.8397,0,0,0
-0.0784,0.0178,1.0605,4.4122,2.7252,19.3969,0,0,0
-0.0691,0.0435,1.0583,6.6489,2.7863,22.7176,0,0,0
-0.0444,0.073,1.0205,4.7023,3.0763,21.6565,0,0,0
-0.0261,0.0674,1.105,4.7786,8.0229,23.2443,0,0,0
-0.0056,0.1399,1.074,2.4656,14.0305,22.7176,0,0,0
-0.0356,0.1426,1.0203,0.6031,15.542,17.6336,0,0,0
-0.0476,0.1208,0.9412,-1.0534,9.1069,15.6107,0,0,0
-0.0479,0.0698,0.9639,-0.916,2.1756,14.4351,0,0,0
-0.0691,0.0823,0.9624,-0.2901,-2.3893,14.9008,0,0,0
-0.0569,0.094,0.9766,-0.0153,-5.313,15.2214,0,0,0
-0.0588,0.1111,0.9888,0.0458,-6.6183,14.2595,0,0,0
-0.1094,0.1018,1.011,-2.6031,-7.3588,11.2748,0,0,0
-0.0498,0.0972,0.9385,-1.6718,-8.9847,12.3282,0,0,0
-0.0432,0.1172,0.9563,-2.7023,-9.2977,11.3282,0,0,0
-0.0479,0.1257,0.9893,-2.5496,-10.1374,8.8015,0,0,0
-0.0322,0.1094,0.9973,-3.8473,-9.9924,7.0,0,0,0
-0.0542,0.0889,0.9971,-3.9008,-9.855,5.9771,0,0,0
-0.0471,0.0625,0.9976,-3.7939,-9.7939,7.0687,0,0,0
-0.0396,0.0596,1.0254,-3.3893,-8.7023,9.0611,0,0,0
-0.0374,0.0623,1.0481,-2.9466,-7.5115,9.8779,0,0,0
-0.051,0.0737,1.0327,-2.8321,-6.1527,9.9542,0,0,0
-0.0359,0.0667,1.0266,-3.1756,-7.0992,11.5496,0,0,0
-0.0391,0.0825,1.0181,-2.1527,-8.2672,11.8855,0,0,0
-0.0308,0.0876,1.0557,-1.5954,-8.6336,12.0458,0,0,0
-0.0203,0.095,1.0608,-0.6565,-6.9466,11.5344,0,0,0
-0.0398,0.0901,1.0369,-0.0763,-5.8855,10.2977,0,0,0
-0.0359,0.053,1.0305,-0.3053,-6.6489,11.5496,0,0,0
-0.0466,0.0664,1.0391,0.6107,-7.3588,14.2137,0,0,0
-0.0273,0.1006,1.0571,0.8168,-5.6947,15.2977,0,0,0
-0.019,0.1135,1.0693,-0.1985,-3.3969,14.771,0,0,0
-0.0259,0.1216,1.0618,-1.084,-0.626,12.7634,0,0,0
-0.0281,0.0957,1.0518,-1.0,-0.626,12.3282,0,0,0
-0.0295,0.1006,1.0264,0.3282,-2.145,12.6412,0,0,0
-0.0386,0.1064,1.0183,1.2443,-4.3435,12.4885,0,0,0
-0.0186,0.1033,1.0601,0.855,-2.9695,13.1985,0,0,0
-0.0273,0.1287,1.0354,-0.5573,-2.4656,11.7023,0,0,0
-0.0193,0.1233,1.0444,-2.6718,-0.6489,10.771,0,0,0
-0.0181,0.1182,1.0435,-2.8092,0.5344,10.4504,0,0,0
-0.0181,0.1157,1.0347,-2.7252,0.7939,9.4198,0,0,0
-0.02,0.1255,1.0178,-2.2595,-0.0229,9.0763,0,0,0
-0.0188,0.1272,1.0254,-1.9695,-0.6489,7.4656,0,0,0
-0.019,0.1331,1.0344,-1.2137,-0.4656,5.542,0,0,0
-0.0249,0.0952,1.0398,-2.0229,0.4809,3.9389,0,0,0
-0.0303,0.0662,1.0244,-3.1374,1.2366,5.0687,0,0,0
-0.0291,0.0608,1.0266,-4.7252,1.9695,6.855,0,0,0
-0.0291,0.0867,1.0217,-4.313,0.9237,7.4885,0,0,0
-0.021,0.1028,1.03,-3.7023,0.0763,7.6641,0,0,0
-0.0076,0.1343,1.041,-2.8931,0.0,6.8321,0,0,0
-0.0005,0.1646,1.0193,-1.3969,0.3435,3.7557,0,0,0
-0.0066,0.1577,1.0088,-0.9237,0.3359,-0.5038,0,0,0
-0.0261,0.1084,1.0068,-1.1985,0.5954,-3.4733,0,0,0
-0.0376,0.0542,1.0117,-2.6718,1.313,-2.2672,0,0,0
-0.0413,0.0542,1.0271,-4.6336,1.7863,1.0,0,0,0
-0.0403,0.0889,1.0281,-5.2748,1.9924,1.9847,0,0,0
-0.0259,0.0984,1.0374,-5.145,1.7786,1.3206,0,0,0
-0.0322,0.1035,1.0137,-3.1221,0.9466,0.2672,0,0,0
-0.0269,0.0874,1.0244,-1.458,-0.9618,0.3664,0,0,0
-0.0376,0.0903,1.0256,-0.6489,-1.3969,1.0763,0,0,0
-0.0264,0.1003,1.0513,-0.3053,-0.2595,2.1374,0,0,0
-0.0217,0.1152,1.0393,-1.8397,1.2977,1.9084,0,0,0
-0.0244,0.1042,1.0315,-3.6947,2.9847,1.1374,0,0,0
-0.0269,0.1062,1.0354,-5.3817,3.9313,1.6641,0,0,0
-0.0181,0.1257,1.0549,-4.626,4.5878,1.7099,0,0,0
-0.0173,0.1157,1.0337,-0.9771,5.0382,1.2672,0,0,0
-0.0344,0.1199,1.0193,0.8702,4.3588,1.0458,0,0,0
-0.0256,0.1118,1.0171,-0.458,4.9389,1.1069,0,0,0
-0.0313,0.1023,1.0083,-2.3969,6.0305,0.0458,0,0,0
-0.0442,0.0989,1.009,-3.2137,5.9542,0.4198,0,0,0
-0.0264,0.0913,1.0442,-4.8855,6.4733,0.855,0,0,0
-0.0332,0.0989,1.0408,-5.0229,7.6947,0.4046,0,0,0
-0.0432,0.0815,1.0288,-3.8244,7.4962,0.229,0,0,0
-0.0388,0.0732,1.0134,-3.3511,6.2824,1.458,0,0,0
-0.0415,0.0881,1.0149,-2.9695,5.3359,2.2061,0,0,0
-0.0513,0.0793,1.0271,-1.9695,4.374,1.6489,0,0,0
-0.0515,0.0845,1.0278,-1.8244,4.2214,2.4427,0,0,0
-0.0398,0.0859,1.0342,-2.7405,4.0534,2.3969,0,0,0
-0.0486,0.0999,1.0251,-2.5496,4.2214,1.313,0,0,0
-0.0432,0.0891,1.0305,-2.8702,3.8168,1.6794,0,0,0
-0.0427,0.1111,1.0186,-1.8092,3.3664,1.0534,0,0,0
-0.0425,0.1001,1.011,-0.5649,2.8931,0.229,0,0,0
-0.0532,0.0725,1.0083,0.1832,2.5191,0.313,0,0,0
-0.0596,0.0657,1.0103,0.3435,1.7939,2.458,0,0,0
-0.0408,0.0823,1.0359,-0.8779,2.0992,4.4809,0,0,0
-0.0388,0.1174,1.0408,-1.2519,3.4275,3.2672,0,0,0
-0.0403,0.1077,1.022,-1.8931,4.5115,2.084,0,0,0
-0.0454,0.1123,1.0071,-2.3435,4.6183,1.8931,0,0,0
-0.0386,0.1086,1.0063,-1.5344,3.458,1.3282,0,0,0
-0.0483,0.1118,1.0146,-0.2977,2.0382,0.4427,0,0,0
-0.0659,0.0742,1.0085,-0.1145,1.8397,-0.0382,0,0,0
-0.0652,0.0605,1.0046,-3.084,1.9924,1.6031,0,0,0
-0.061,0.075,1.0222,-4.229,1.9847,3.2214,0,0,0
-0.0713,0.0825,1.0254,-3.7176,1.4122,2.313,0,0,0
-0.0557,0.0723,1.0144,-3.7405,0.0687,2.2366,0,0,0
-0.0471,0.094,1.0195,-3.7939,-0.1527,2.7786,0,0,0
-0.0403,0.1274,1.0205,-1.2672,-0.4275,2.0382,0,0,0
-0.0464,0.1213,1.0183,0.5344,-0.7328,0.1603,0,0,0
-0.0554,0.1001,1.0229,-0.5573,-0.7252,-1.4122,0,0,0
-0.0688,0.0522,1.0364,-3.2214,0.9237,-1.6107,0,0,0
-0.0852,0.0193,1.0188,-4.916,1.9084,0.4733,0,0,0
-0.0798,0.0276,1.0276,-4.8092,1.5115,3.8244,0,0,0
-0.0603,0.0674,1.0403,-2.7481,0.8931,5.8473,0,0,0
-0.0522,0.1218,1.0403,-1.1832,0.4275,5.0916,0,0,0
-0.0281,0.1418,1.0442,-0.4198,0.6031,3.3588,0,0,0
-0.0391,0.1497,1.0259,0.9847,1.2137,0.916,0,0,0
-0.0305,-0.041,1.0066,5.4885,3.8779,2.4198,0,0,0
-0.022,0.0022,0.9202,-3.0305,8.3511,1.3817,0,0,0
-0.0913,0.1323,1.0276,-6.3511,5.9008,4.8092,0,0,0
-0.0752,0.0552,1.0044,-3.9084,0.3511,3.6489,0,0,0
-0.0476,0.075,1.0581,-3.0153,1.9389,4.8092,0,0,0
-0.0547,0.1196,1.0557,-3.6412,2.7939,5.4275,0,0,0
-0.0444,0.1367,1.0464,-3.3359,4.1756,4.1069,0,0,0
-0.0491,0.1104,1.0005,-1.5267,3.0611,2.1069,0,0,0
-0.0706,0.082,1.0081,0.1221,0.7099,2.0763,0,0,0
-0.0723,0.0742,1.0139,-0.5802,0.4427,3.0763,0,0,0
-0.0747,0.0686,1.0347,-1.5573,2.0534,3.9237,0,0,0
-0.074,0.0835,1.0139,-2.8244,3.4122,4.4733,0,0,0
-0.0566,0.0994,1.0122,-3.458,2.8702,4.3664,0,0,0
-0.0532,0.1328,1.0259,-2.8931,2.1756,2.5954,0,0,0
-0.0508,0.1252,1.0107,-0.6641,1.5649,0.3969,0,0,0
-0.0562,0.092,1.0134,0.5191,0.3053,-0.6489,0,0,0
-0.0764,0.0554,1.0078,0.6947,-0.229,-0.1145,0,0,0
-0.0796,0.0515,1.0044,-0.0916,-1.5191,2.374,0,0,0
-0.0632,0.0667,1.0249,-0.542,-1.229,4.4885,0,0,0
-0.0625,0.1106,1.0337,-0.9695,-0.3359,4.1985,0,0,0
-0.0474,0.1099,1.0298,-1.0992,0.7939,2.7939,0,0,0
-0.0625,0.1072,1.0208,-1.3359,1.2443,2.5573,0,0,0
-0.0591,0.1177,1.0183,-0.3282,-0.0687,2.7405,0,0,0
-0.0566,0.126,1.0166,0.7099,-0.8397,1.7252,0,0,0
-0.0557,0.1208,1.0225,0.6641,-0.6031,0.6031,0,0,0
-0.0657,0.0845,1.032,-1.6641,0.5802,-0.1221,0,0,0
-0.0784,0.0645,1.0281,-3.4427,1.9389,1.2824,0,0,0
-0.0784,0.0559,1.03,-4.0076,2.3817,3.4198,0,0,0
-0.072,0.0767,1.0168,-3.5267,1.855,4.7252,0,0,0
-0.0627,0.1018,1.0181,-2.0382,0.8168,4.6412,0,0,0
-0.0608,0.1223,1.0154,-0.1756,0.0611,3.855,0,0,0
-0.0632,0.1111,1.0173,0.1908,-0.7481,3.0534,0,0,0
-0.064,0.1108,1.0237,0.0916,0.1985,2.4656,0,0,0
-0.0688,0.0964,1.0176,-1.2519,1.1527,1.8779,0,0,0
-0.0676,0.0754,1.0183,-3.8779,2.0916,1.9771,0,0,0
-0.0811,0.0691,1.0071,-4.9237,2.0534,2.7252,0,0,0
-0.0774,0.053,1.0176,-5.4122,1.542,4.6107,0,0,0
-0.0706,0.0671,1.0161,-3.3588,0.4122,6.4198,0,0,0
-0.0615,0.0881,1.022,-1.7634,-0.8779,7.4046,0,0,0
-0.0576,0.1038,1.0354,-1.1985,-0.771,7.1603,0,0,0
-0.0542,0.1116,1.0347,-1.7176,-0.3969,6.2748,0,0,0
-0.0642,0.0894,1.0381,-3.0153,1.1527,5.9542,0,0,0
-0.0776,0.0662,1.0146,-5.1298,2.3435,6.9084,0,0,0
-0.0645,0.0422,1.0273,-8.2672,3.542,9.2214,0,0,0
-0.0745,0.061,1.0249,-7.2519,3.8168,11.6107,0,0,0
-0.0664,0.0667,1.0291,-7.3588,2.7786,13.6565,0,0,0
-0.0671,0.0776,1.0474,-7.2672,5.3206,16.0763,0,0,0
-0.051,0.1379,1.0293,-5.8092,3.1069,14.2595,0,0,0
-0.0554,0.1294,1.0239,-3.9084,2.0534,11.3664,0,0,0
-0.0601,0.0679,1.0259,-4.7252,2.5649,10.771,0,0,0
-0.0747,0.0403,1.0117,-6.3053,4.5878,13.1679,0,0,0
-0.0918,0.0237,1.0278,-8.374,4.4885,15.9847,0,0,0
-0.0889,0.0474,1.0205,-8.0611,4.0153,18.6336,0,0,0
-0.074,0.1099,1.041,-7.4275,3.0305,19.3359,0,0,0
-0.0618,0.1399,1.0386,-5.1298,2.1832,16.8397,0,0,0
-0.061,0.1182,1.0447,-5.0458,2.4122,12.5496,0,0,0
-0.1033,0.0696,1.022,-6.4122,3.3206,10.5954,0,0,0
-0.1204,-0.0095,1.0127,-7.5725,3.6794,12.542,0,0,0
-0.1213,-0.011,1.0044,-8.6412,3.8473,16.7557,0,0,0
-0.1016,0.0505,1.0403,-8.7863,3.6641,20.458,0,0,0
-0.0698,0.0955,1.0283,-7.4656,3.0763,20.9771,0,0,0
-0.0972,0.1643,1.0566,-2.313,3.1908,17.3053,0,0,0
-0.0442,0.1006,0.9927,-1.7405,0.1679,15.6489,0,0,0
-0.0303,0.093,1.0129,-0.2137,3.6947,18.0916,1,0,0
0.0073,0.1953,1.0105,-1.1756,4.7634,14.0076,1,0,0
-0.0217,0.2454,0.8987,-1.9618,2.7023,14.7863,1,0,0
-0.0061,0.1357,1.123,2.542,7.4656,7.8931,1,0,0
-0.0686,0.1545,1.2002,3.855,8.542,15.3435,1,0,0
-0.0288,0.0146,1.166,4.687,26.7405,11.7557,1,0,0
-0.1948,0.177,0.9673,-6.2901,28.3282,10.5878,1,0,0
-0.1296,0.0898,1.0093,-9.6641,22.4275,-1.5649,1,0,0
-0.1763,0.0056,1.0017,-7.6183,18.7786,-0.6107,1,0,0
-0.1899,0.0334,0.9666,-4.4275,7.1756,3.1145,1,0,0
-0.1641,0.0239,0.9895,-1.3511,-0.4427,2.0,1,0,0
-0.1711,-0.0056,1.0286,-3.626,-4.1069,1.0153,1,0,0
-0.3262,-0.1084,1.1399,-0.771,-13.771,5.9008,1,0,0
-0.124,0.0181,0.9805,-1.8702,-10.4122,4.1832,1,0,0
-0.0967,0.1475,1.0354,-1.4351,-12.2519,1.4198,1,0,0
-0.074,0.1233,1.0012,0.5725,-12.5191,4.4733,1,0,0
-0.0491,0.1614,1.0203,0.771,-9.4122,1.229,1,0,0
-0.0313,0.1567,1.0117,0.0992,-7.4733,-0.9389,1,0,0
-0.0442,0.1526,0.9888,1.4656,-7.7252,-3.7099,1,0,0
-0.0342,0.1274,0.9893,0.2443,-7.5954,-4.084,1,0,0
-0.0505,0.1287,0.9937,-0.1908,-7.2977,-4.0229,0,0,0
-0.0542,0.1118,1.0295,-1.5267,-5.2519,-4.0153,0,0,0
-0.0703,0.0908,1.041,-4.0382,-0.7939,-4.313,0,0,0
-0.0898,0.084,1.0342,-4.5573,1.7023,-3.8168,0,0,0
-0.0977,0.072,1.0203,-4.3893,1.9618,-3.5344,0,0,0
-0.0959,0.0549,1.0269,-3.0305,0.6489,-3.5344,0,0,0
-0.105,0.0549,1.0442,-1.0763,-0.2824,-1.8626,0,0,0
-0.0845,0.0691,1.0,-0.5878,-0.0229,-2.374,0,0,0
-0.0996,0.0725,1.0066,-2.1985,-1.7939,-2.6336,0,0,0
-0.106,0.0547,1.0486,-0.2672,-3.7176,-1.9847,0,0,0
-0.1113,0.0444,1.0371,3.1603,-4.7939,-1.0382,0,0,0
-0.1101,0.0527,1.0132,4.9084,-6.4885,1.0611,0,0,0
-0.0947,0.0764,1.0361,4.145,-5.7176,1.9695,0,0,0
-0.0762,0.0969,1.0474,1.1069,-3.145,1.084,0,0,0
-0.0791,0.1016,1.0596,-1.3893,-0.7252,-0.4809,0,0,0
-0.0798,0.0854,1.0366,-1.7252,0.4962,-1.0153,0,0,0
-0.083,0.0767,1.0142,-0.458,-0.1756,-0.313,0,0,0
-0.0708,0.0928,1.0244,-0.7557,-1.0305,0.229,0,0,0
-0.0447,0.1003,1.1133,-2.1908,1.3206,-0.3435,0,0,0
-0.1011,0.1128,1.0176,-0.5573,0.6718,-0.9695,0,0,0
-0.0737,0.0955,1.0518,-0.855,0.7099,-2.4733,1,0,0
-0.0759,0.0935,0.9871,-0.084,-0.1908,-1.5802,1,0,0
-0.0747,0.1111,1.0125,-0.0229,-0.1908,-3.1908,1,0,0
-0.0781,0.0945,0.9854,-0.1679,-0.4656,-4.1985,1,0,0
-0.0857,0.0781,1.0127,-0.229,-1.4656,-3.4962,1,0,0
-0.0764,0.0791,1.0308,-0.9084,0.1603,-1.3664,1,0,0
-0.0671,0.1079,1.0273,-1.8931,1.8092,-1.6947,0,0,0
-0.0681,0.1223,1.0044,-2.5802,2.6489,-3.4733,0,0,0
-0.0725,0.0967,0.9922,-1.8321,1.5573,-4.3588,0,0,0
-0.0706,0.105,0.9995,-0.5649,0.1374,-3.9237,0,0,0
-0.0767,0.0994,1.0249,0.1069,-0.3817,-4.1145,0,0,0
-0.0786,0.0903,1.032,-0.1603,0.0916,-4.9771,0,0,0
-0.094,0.0823,1.0283,-1.0916,-0.1145,-4.9924,0,0,0
-0.1086,0.0649,1.0154,-2.5725,-0.6336,-4.6336,0,0,0
-0.1077,0.0698,1.0198,-2.9847,-0.5878,-3.229,0,0,0
-0.0974,0.092,1.0134,-2.4427,-0.3435,-2.3435,0,0,0
-0.0872,0.1123,0.9915,-0.5496,-2.2137,-2.7863,0,0,0
-0.0842,0.0962,0.9817,-0.5344,-4.0382,-3.7863,0,0,0
-0.0935,0.0718,1.0051,-0.4198,-5.3664,-3.6947,0,0,0
-0.0886,0.0742,1.0159,1.1221,-6.5115,-2.3282,0,0,0
-0.0806,0.0886,1.0364,2.1985,-6.9924,-0.5496,0,0,0
-0.073,0.1089,1.0454,1.084,-5.9389,-1.855,0,0,0
-0.0625,0.1265,1.043,-1.0534,-3.8244,-3.4733,0,0,0
-0.0728,0.0984,1.0176,-0.8321,-1.9618,-4.7328,0,0,0
-0.0786,0.0891,1.0032,-0.2061,-2.687,-5.2214,0,0,0
-0.0884,0.0808,1.0269,-1.2672,-3.0382,-3.8779,0,0,0
-0.0811,0.0967,1.0493,-1.1603,-2.1908,-3.4351,0,0,0
-0.0696,0.0957,1.0437,-1.8855,-0.4427,-4.3206,0,0,0
-0.0803,0.0874,1.031,-2.7481,1.2443,-5.1298,0,0,0
-0.0881,0.0754,1.0278,-2.0305,1.4885,-4.7176,0,0,0
-0.0872,0.0845,1.0149,-0.8168,-0.0763,-3.6031,0,0,0
-0.0759,0.1006,1.0139,0.687,-1.9924,-3.9618,0,0,0
-0.0806,0.0847,1.0276,0.2901,-1.3053,-4.8244,0,0,0
-0.0815,0.0745,1.0234,-1.6718,-0.5191,-4.3511,0,0,0
-0.0881,0.0801,1.0444,-2.4122,-0.2137,-3.5496,0,0,0
-0.0806,0.104,1.0322,-1.2214,-1.771,-3.3588,0,0,0
-0.0654,0.1111,1.0237,-0.2137,-2.0382,-4.3511,0,0,0
-0.073,0.1106,1.0117,-0.229,-1.5649,-5.8321,0,0,0
-0.0762,0.1143,1.0037,-0.9542,-1.3282,-6.5267,0,0,0
-0.0791,0.0911,1.0198,-0.9695,-2.0763,-7.542,0,0,0
-0.0977,0.0762,1.021,1.4885,-4.1298,-7.8626,0,0,0
-0.0886,0.0671,1.02,2.3435,-5.3511,-6.9771,0,0,0
-0.0928,0.064,1.0234,2.1908,-4.2519,-6.2137,0,0,0
-0.0911,0.0759,1.0166,1.0992,-3.6336,-5.9466,0,0,0
-0.0923,0.0845,1.0137,1.1527,-3.4962,-5.9695,0,0,0
-0.0879,0.1042,1.0059,3.0382,-4.7863,-5.4885,0,0,0
-0.0808,0.1262,1.0271,2.5802,-6.5344,-6.0916,0,0,0
-0.0808,0.1223,1.0154,3.6031,-4.8015,-8.9771,0,0,0
-0.0728,0.1172,1.0203,2.4275,-5.2443,-10.0,0,0,0
-0.0828,0.103,1.0183,3.2977,-5.5878,-11.4198,0,0,0
-0.0872,0.0337,1.0334,1.6412,-4.5191,-9.9313,0,0,0
-0.0879,0.0359,1.0144,0.8321,-4.6718,-6.2824,0,0,0
-0.0759,0.0735,1.0322,1.0076,-5.0305,-2.6947,0,0,0
-0.0564,0.1028,1.0396,0.4962,-4.8626,-1.4809,0,0,0
-0.0613,0.1101,1.0193,1.1298,-4.6489,-2.6565,0,0,0
-0.0596,0.0884,1.0139,0.2137,-4.771,-2.6107,0,0,0
-0.0649,0.0725,1.0269,-0.5802,-4.6565,-0.3588,0,0,0
-0.0623,0.0876,1.0229,-1.313,-3.5038,2.5649,0,0,0
-0.0427,0.1104,1.0364,-1.1679,-2.3588,4.6031,0,0,0
-0.0361,0.1423,1.0193,-2.0,-1.8015,4.5954,0,0,0
-0.0249,0.1489,1.0334,-3.4122,-1.2366,2.8168,0,0,0
-0.0435,0.1267,1.0366,-4.1145,0.8473,1.4504,0,0,0
-0.0513,0.103,1.0286,-3.9008,1.6718,2.0458,0,0,0
-0.0505,0.1013,1.0242,-2.8931,1.8092,3.7481,0,0,0
-0.0623,0.1177,1.0251,-2.1527,1.687,3.3588,0,0,0
-0.0649,0.1084,1.0232,-3.0458,2.0763,2.1832,0,0,0
-0.0583,0.1062,1.0354,-3.6107,2.9313,1.4885,0,0,0
-0.0708,0.1226,1.0415,-3.9084,3.8779,0.916,0,0,0
-0.0764,0.1113,1.0347,-3.0458,3.9924,-0.2672,0,0,0
-0.0835,0.1172,1.0083,-2.0,4.1985,-1.5038,0,0,0
-0.0715,0.0947,1.0093,-3.2595,3.7939,-2.626,0,0,0
-0.0933,0.0879,1.0063,-1.7252,2.8626,-3.6489,0,0,0
-0.0918,0.0605,1.0112,-0.6794,0.916,-3.2519,0,0,0
-0.105,0.0642,1.0166,0.8015,-1.0229,-1.8855,0,0,0
-0.0879,0.071,1.0303,0.9313,-2.6183,-1.0916,0,0,0
-0.0779,0.0999,1.0413,0.3817,-2.2901,-1.9084,0,0,0
-0.0786,0.0959,1.0374,-1.4962,-1.4122,-2.687,0,0,0
-0.0706,0.0938,1.0239,-2.1603,-1.1221,-1.9466,0,0,0
-0.0688,0.0972,1.0164,-2.0534,-1.0153,-2.1374,0,0,0
-0.061,0.1135,1.0007,-0.7252,-1.0992,-1.7023,0,0,0
-0.0664,0.1047,1.0098,-0.3664,-2.145,-2.2824,0,0,0
-0.0808,0.0923,1.0139,-0.4275,-1.9695,-2.229,0,0,0
-0.0723,0.0833,1.0171,-0.2366,-2.5038,-0.1374,0,0,0
-0.0684,0.1182,1.02,-0.6794,-1.7023,0.6107,0,0,0
-0.0549,0.1287,1.0276,-0.9313,-0.916,-0.5573,0,0,0
-0.0537,0.1201,1.0195,-1.8015,0.8321,-1.8626,0,0,0
-0.0571,0.1184,1.0173,-2.4427,0.3969,-1.9466,0,0,0
-0.0537,0.1128,1.0159,-2.458,0.4046,-2.084,0,0,0
-0.0627,0.1077,1.022,-2.7405,0.3588,-2.2977,0,0,0
-0.0732,0.0847,1.0259,-3.3206,0.6183,-2.3817,0,0,0
-0.085,0.0657,1.0139,-2.6794,-0.1985,-1.4656,0,0,0
-0.0884,0.0735,1.0249,-2.6031,-1.6031,1.145,0,0,0
-0.0742,0.0955,1.0273,-1.0611,-1.7252,1.8321,0,0,0
-0.0762,0.0991,1.0176,1.5344,-2.4885,0.458,0,0,0
-0.0854,0.0828,1.0066,1.8168,-2.6183,0.1756,0,0,0
-0.0752,0.0623,1.0408,-0.687,-2.2977,1.4046,0,0,0
-0.0923,0.0789,1.0525,-1.6183,0.1298,2.3282,0,0,0
-0.072,0.0952,1.0305,-3.6565,1.3817,3.5649,0,0,0
-0.0615,0.1223,1.02,-3.4122,1.4962,3.1145,0,0,0
-0.0657,0.1345,1.0237,-1.8015,0.7023,0.6718,0,0,0
-0.0667,0.1052,1.0022,-0.0229,-0.7405,-0.626,0,0,0
-0.0688,0.0701,1.0227,-1.9924,-0.4427,0.7557,0,0,0
-0.073,0.0774,1.0247,-2.9542,0.1679,3.3435,0,0,0
-0.0518,0.1213,1.0337,-3.1908,0.7252,4.771,0,0,0
-0.0422,0.1646,1.0291,-2.5191,0.626,2.4885,0,0,0
-0.0498,0.1541,1.0066,-1.5573,0.0916,-1.1145,0,0,0
-0.0691,0.0891,1.0105,-2.2519,0.0,-2.9847,0,0,0
-0.0913,0.0403,1.0093,-2.5725,0.6641,-0.5878,0,0,0
-0.0876,0.0586,1.0107,-3.0763,0.6565,3.5038,0,0,0
-0.0698,0.0996,1.03,-3.3359,1.0,4.542,0,0,0
-0.0693,0.1313,1.0144,-3.542,0.7557,2.2366,0,0,0
-0.063,0.125,1.0229,-3.626,0.2214,0.2519,0,0,0
-0.0715,0.113,1.0271,-2.9084,0.1298,-0.8779,0,0,0
-0.0757,0.1096,1.0164,-1.1908,-0.8626,-2.0305,0,0,0
-0.0754,0.103,1.0105,-0.7023,-2.229,-2.5649,0,0,0
-0.0767,0.0906,1.0085,-1.2901,-2.1756,-3.1298,0,0,0
-0.0771,0.0796,1.02,-1.4885,-2.6107,-2.145,0,0,0
-0.0806,0.085,1.0195,-0.8168,-3.0916,-1.0153,0,0,0
-0.0073,0.1047,1.0662,-4.5344,1.2137,-0.8092,0,0,0
-0.0637,0.1677,1.0107,-4.3817,0.3893,-1.1374,0,0,0
-0.0396,0.1387,1.0291,-2.687,-1.5267,-5.9466,1,0,0
-0.0603,0.1016,0.9985,-1.2061,-1.9695,-5.9008,1,0,0
-0.0928,0.0874,1.0103,-1.3359,-2.9924,-5.2595,1,0,0
-0.0798,0.0793,1.0269,-1.3588,-1.5802,-1.6412,1,0,0
-0.0737,0.1055,1.0271,-2.7405,0.3511,-1.1298,1,0,0
-0.0845,0.092,1.0244,-2.1145,-0.8092,-2.4046,1,0,0
-0.0857,0.0745,1.0059,-0.9389,-1.4733,-0.9466,1,0,0
-0.0681,0.083,1.0186,0.9771,-3.4351,0.8473,1,0,0
-0.0706,0.0969,1.0359,2.855,-4.4733,2.7328,1,0,0
-0.0664,0.1387,1.0269,-0.229,-2.9542,-0.0229,1,0,0
-0.0591,0.1189,1.0247,-2.1145,-3.0458,-2.2443,1,0,0
-0.0693,0.0933,1.032,-2.6794,-1.3511,-2.0992,1,0,0
-0.0635,0.0862,1.0188,-1.9237,-1.4656,-0.1603,1,0,0
-0.063,0.1189,1.0085,-0.2977,-2.4122,0.4351,1,0,0
-0.0535,0.1316,1.0129,-0.9542,-2.5267,-1.1832,1,0,0
-0.0457,0.1067,1.0259,-1.4962,-1.8931,-2.0229,1,0,0
-0.0637,0.1023,1.0188,-1.0916,-2.5115,-1.6412,1,0,0
-0.0649,0.1042,1.0359,-1.1374,-2.7939,-1.1298,1,0,0
-0.0588,0.0996,1.0308,-1.4504,-1.458,-1.0916,0,0,0
-0.0625,0.0933,1.0239,-2.1603,-0.5115,-1.7023,0,0,0
-0.064,0.0918,1.0398,-1.687,-1.0458,-1.4733,0,0,0
-0.0625,0.0881,1.0442,-1.855,-0.0763,-1.2061,0,0,0
-0.062,0.0918,1.043,-2.1985,0.9008,-0.7786,0,0,0
-0.0642,0.0962,1.0364,-2.542,0.7634,-1.3588,0,0,0
-0.0696,0.093,1.0354,-1.9542,0.1527,-2.1985,0,0,0
-0.0789,0.0791,1.0308,-1.0687,-0.4733,-2.0305,0,0,0
-0.0835,0.071,1.03,-1.1374,-0.4656,-1.1756,0,0,0
-0.0786,0.0852,1.0286,-0.6794,-0.3817,-0.2672,0,0,0
-0.0737,0.1082,1.0247,-0.6031,-0.2672,-0.2214,0,0,0
-0.0579,0.1289,1.0276,-0.7405,-0.1374,-0.7481,0,0,0
-0.0598,0.1323,1.0251,-1.3053,0.7786,-2.8931,0,0,0
-0.0608,0.1042,1.0308,-1.7481,1.4656,-3.5115,0,0,0
-0.0701,0.0945,1.0212,-2.1145,2.3893,-3.2595,0,0,0
-0.0708,0.0977,1.0359,-2.5344,3.0992,-1.8092,0,0,0
-0.0742,0.0957,1.0383,-2.4122,3.8244,-2.6336,0,0,0
-0.075,0.0952,1.0212,-1.9542,3.7023,-2.7634,0,0,0
-0.0676,0.1052,1.0354,-2.8779,3.687,-2.4275,0,0,0
-0.0601,0.1172,1.0251,-2.3206,3.9847,-3.0305,0,0,0
-0.063,0.1023,1.0024,-1.9847,2.6794,-4.8473,0,0,0
-0.0732,0.084,0.9902,-2.5802,1.2672,-4.5191,0,0,0
-0.0754,0.0669,1.011,-1.6718,-0.5038,-3.1603,0,0,0
-0.0715,0.0796,1.0107,-0.458,-1.8244,-1.0458,0,0,0
-0.0532,0.1101,1.0261,-0.2824,-1.6183,-0.3282,0,0,0
-0.0547,0.135,1.0286,-1.7481,0.3817,-1.7176,0,0,0
-0.0442,0.1311,1.0312,-3.2519,2.0076,-3.2214,0,0,0
-0.0642,0.1165,1.0281,-3.3588,2.8321,-4.5878,0,0,0
-0.072,0.0911,1.0305,-2.6107,2.8321,-4.0687,0,0,0
-0.0742,0.0862,1.0193,-1.3053,2.0992,-3.5344,0,0,0
-0.0688,0.0959,1.0137,-0.7481,1.6718,-2.626,0,0,0
-0.0706,0.0984,1.0278,-0.687,2.626,-2.4885,0,0,0
-0.0691,0.1074,1.0173,-1.313,3.2748,-3.3817,0,0,0
-0.082,0.0684,1.0188,0.6565,2.8092,-3.2901,0,0,0
-0.0918,0.0603,1.0056,-1.9008,2.5344,-2.8779,0,0,0
-0.0908,0.0601,1.01,-0.6641,0.0916,0.2901,0,0,0
-0.0718,0.0947,1.0129,-0.4962,-1.3359,1.6794,0,0,0
-0.0664,0.1296,1.0056,1.5267,-2.4733,0.2214,0,0,0
0.1458,0.3467,1.0056,-3.9847,3.2748,-2.5649,0,0,0
-0.0759,0.1216,1.0034,1.2137,-0.3664,-3.9466,0,0,0
-0.0239,0.0728,1.1277,2.5573,7.3359,-0.3817,1,0,0
-0.0911,0.1094,0.9592,3.9237,5.4351,2.4809,1,0,0
-0.1016,0.1194,1.0273,2.2214,2.0229,-1.229,1,0,0
-0.0901,0.0566,1.0554,-0.1985,6.4198,-1.9389,1,0,0
-0.1223,0.0813,1.0427,-4.5573,10.2443,0.1145,1,0,0
-0.1343,0.0605,1.0112,-6.8626,10.1908,-0.8931,1,0,0
-0.146,0.073,0.9734,-6.5191,6.0458,-3.7939,1,0,0
-0.1277,-0.0232,0.9985,-6.1069,1.6947,-3.8779,1,0,0
-0.155,0.0447,1.0215,-6.5038,-1.3817,-2.145,1,0,0
-0.1455,0.0364,1.0344,-2.0153,-4.6794,0.8473,1,0,0
-0.0547,0.1216,0.9412,8.2366,-15.4351,5.5115,1,0,0
-0.0781,0.1042,1.0261,3.5191,-9.9313,3.229,1,0,0
-0.0544,0.1719,1.0354,3.8855,-11.0305,3.4351,1,0,0
-0.0386,0.1555,1.0442,-0.1679,-7.1985,0.6794,1,0,0
-0.0459,0.1479,1.0125,-3.2519,-3.7786,-0.3588,1,0,0
-0.0483,0.1223,1.0217,-4.4046,-3.1985,-0.5725,1,0,0
-0.0586,0.1194,1.0298,-3.1527,-2.1221,-0.5038,1,0,0
-0.063,0.1125,1.0315,-2.4351,-1.687,-0.2672,1,0,0
-0.0549,0.1077,1.0378,-2.5573,-0.2977,-0.0687,0,0,0
-0.0679,0.106,1.0452,-2.8244,1.1527,-0.5725,0,0,0
-0.0793,0.0955,1.0352,-3.0076,1.7252,-0.458,0,0,0
-0.084,0.0969,1.0337,-1.6107,1.0687,-0.3893,0,0,0
-0.0898,0.0806,1.0286,-0.0458,0.3969,0.0611,0,0,0
-0.0881,0.0771,1.0278,0.3664,0.1069,0.4656,0,0,0
-0.0894,0.0952,1.0308,-0.7405,0.7863,1.4351,0,0,0
-0.0789,0.1082,1.0339,-0.8244,1.374,1.0458,0,0,0
-0.0796,0.1008,1.0125,-0.6107,1.5802,-0.1298,0,0,0
-0.0823,0.1013,1.0076,-1.2519,0.6336,0.2595,0,0,0
-0.0798,0.1062,1.0166,-0.6031,-0.2137,0.6031,0,0,0
-0.0645,0.1204,1.0046,0.7786,-0.8702,0.313,0,0,0
-0.0715,0.1257,0.9915,-0.374,-1.2824,-1.0534,0,0,0
-0.0801,0.1077,1.021,-2.5344,-0.855,-1.8931,0,0,0
-0.0864,0.0984,1.0225,-2.145,-0.5344,-1.2519,0,0,0
-0.0854,0.0981,1.0166,-1.5878,-0.4885,-0.4046,0,0,0
-0.0879,0.0964,1.0098,-1.4504,-0.9084,-0.5802,0,0,0
-0.0862,0.0754,1.0117,-2.0687,-1.2519,0.1603,0,0,0
-0.0938,0.0808,1.0066,-1.3817,-2.7863,1.1298,0,0,0
-0.0852,0.0972,1.0154,-1.0687,-4.3664,2.2824,0,0,0
-0.0735,0.0981,1.0229,-1.4656,-4.1603,1.8855,0,0,0
-0.0793,0.0974,1.0168,-1.8473,-4.0229,1.8779,0,0,0
-0.0737,0.0967,1.0117,-0.7176,-3.9695,3.2748,0,0,0
-0.0701,0.0967,1.0117,-0.3893,-4.1908,4.0153,0,0,0
-0.0569,0.1067,1.011,-1.3435,-3.6031,4.458,0,0,0
-0.0557,0.1191,1.0283,-2.2137,-3.2977,4.7023,0,0,0
-0.0591,0.1294,1.0398,-3.0534,-2.2366,3.9237,0,0,0
-0.0535,0.1299,1.0293,-3.0763,-1.0916,3.6031,0,0,0
-0.0522,0.1357,1.0276,-3.3359,0.3206,3.1374,0,0,0
-0.0542,0.1213,1.0349,-2.9313,0.7786,1.9771,0,0,0
-0.0688,0.0994,1.0117,-2.7176,0.8855,1.9618,0,0,0
-0.0664,0.0774,1.0181,-3.1221,0.1832,4.0611,0,0,0
-0.0679,0.0981,1.0281,-3.8321,-0.1679,5.5038,0,0,0
-0.0669,0.1121,1.0366,-3.3588,-0.4198,5.0076,0,0,0
-0.0728,0.1223,1.0374,-3.0916,-0.4656,3.3588,0,0,0
-0.0735,0.1177,1.0273,-2.3588,-1.1527,2.3511,0,0,0
-0.0801,0.1167,1.0254,-3.5038,0.0916,0.9313,0,0,0
-0.0862,0.0769,1.0242,-4.0,0.6183,0.8397,0,0,0
-0.0913,0.0679,1.0247,-4.9618,1.1908,2.7481,0,0,0
-0.0964,0.0674,1.0442,-4.7863,1.3893,4.0687,0,0,0
-0.1082,0.051,1.0303,-2.8321,0.7786,4.3206,0,0,0
-0.0911,0.0591,1.0276,-2.8015,-0.3282,7.2137,0,0,0
-0.0718,0.1096,1.0527,-2.4809,-0.8015,8.229,0,0,0
-0.062,0.1392,1.0471,-1.5573,-0.6107,6.3893,0,0,0
-0.0613,0.1277,1.02,-0.3511,-0.4809,3.7557,0,0,0
-0.0576,0.104,1.022,-1.7405,0.2901,3.8702,0,0,0
-0.0735,0.103,1.0244,-2.855,1.6031,4.3893,0,0,0
-0.0669,0.0967,1.0408,-3.1374,2.3893,5.3359,0,0,0
-0.063,0.1023,1.0342,-2.3969,3.3969,5.7634,0,0,0
-0.0657,0.106,1.0381,-2.7786,4.2366,6.1374,0,0,0
-0.064,0.1123,1.0386,-4.8321,5.8931,6.2366,0,0,0
-0.062,0.0989,1.0427,-6.4427,6.6641,6.374,0,0,0
-0.0667,0.1147,1.0171,-6.1298,7.2595,5.5725,0,0,0
-0.0793,0.1021,1.0073,-6.2061,6.0305,3.9847,0,0,0
-0.0874,0.082,1.012,-5.7252,4.8321,4.1298,0,0,0
-0.0933,0.073,1.0142,-5.7252,4.4427,4.3359,0,0,0
-0.0967,0.0867,1.0293,-4.7481,4.084,4.7328,0,0,0
-0.0867,0.106,1.0271,-3.2214,3.4962,4.6107,0,0,0
-0.0881,0.1401,1.0127,-1.9618,2.9466,2.6183,0,0,0
-0.0886,0.1265,1.0071,-1.5802,2.9389,-0.3588,0,0,0
-0.0928,0.1042,0.9922,-2.4351,3.4427,-1.7863,0,0,0
-0.1006,0.0698,1.0071,-2.5802,3.2824,-1.2137,0,0,0
-0.1096,0.0615,1.0049,-1.8702,2.4351,0.0763,0,0,0
-0.093,0.0645,1.0242,-2.4504,1.2443,2.3206,0,0,0
-0.0886,0.0911,1.0334,-2.7176,1.5802,2.916,0,0,0
-0.0684,0.1243,1.0222,-3.2519,1.1298,2.9237,0,0,0
-0.0698,0.1243,1.0308,-3.6565,1.0458,0.855,0,0,0
-0.0835,0.1096,1.0183,-2.9924,0.8244,-0.6718,0,0,0
-0.0754,0.0864,1.0291,-3.5191,1.4656,1.1603,0,0,0
-0.0803,0.1001,1.0393,-2.8168,2.5573,1.6794,0,0,0
-0.0791,0.1106,1.0381,-3.4885,3.0534,1.542,0,0,0
-0.0769,0.0947,1.0386,-4.626,3.8855,1.0458,0,0,0
-0.092,0.0803,1.0198,-4.8168,4.3053,1.9695,0,0,0
-0.0906,0.0784,1.0276,-5.1069,4.3206,4.0153,0,0,0
-0.0801,0.0996,1.0271,-5.0153,5.3817,5.5038,0,0,0
-0.0779,0.1384,1.0283,-4.2519,6.145,4.7328,0,0,0
-0.0786,0.1438,1.031,-4.2824,7.3359,1.8244,0,0,0
-0.0925,0.1182,1.0173,-4.3206,8.0305,-0.2366,0,0,0
-0.1067,0.0833,1.0203,-3.8855,7.9313,-0.4122,0,0,0
-0.1196,0.0669,1.0066,-2.7023,6.916,0.7328,0,0,0
-0.1077,0.0579,1.0173,-4.1832,6.2901,1.8702,0,0,0
-0.1145,0.0557,1.0239,-7.0,7.4046,2.6947,0,0,0
-0.1091,0.0615,1.0337,-9.5038,7.9695,3.9466,0,0,0
-0.1064,0.0876,1.0359,-9.8702,7.8092,4.1069,0,0,0
-0.1052,0.0825,1.0049,-7.9847,5.1374,3.5954,0,0,0
-0.1145,0.0833,0.9978,-5.9924,2.4733,2.9084,0,0,0
-0.1223,0.0745,1.0208,-4.9008,0.6489,4.0992,0,0,0
-0.1196,0.0718,1.0164,-2.6565,0.3435,3.1985,0,0,0
-0.1138,0.0535,1.0259,-2.374,0.4885,4.0992,0,0,0
-0.1082,0.063,1.0474,-3.3359,1.1221,6.8015,0,0,0
-0.1077,0.0952,1.04,-2.7405,1.5267,7.5573,0,0,0
-0.0881,0.1221,1.0396,-3.9695,3.5267,5.0534,0,0,0
-0.093,0.1094,1.0217,-3.8702,4.6794,2.7023,0,0,0
-0.105,0.075,1.0061,-3.458,4.9924,2.3206,0,0,0
-0.1255,0.0581,1.0088,-2.1832,5.4275,3.7405,0,0,0
-0.1052,0.064,1.0159,-2.7634,5.0534,6.6183,0,0,0
-0.0967,0.1167,1.0303,-3.5191,5.3053,6.687,0,0,0
-0.0906,0.1223,1.0308,-4.2595,5.1908,4.2443,0,0,0
-0.1038,0.1018,1.0232,-5.5573,5.3206,2.4809,0,0,0
-0.1262,0.0557,1.0205,-4.9847,5.8092,3.2519,0,0,0
-0.124,0.0598,1.0073,-3.1527,4.626,6.2214,0,0,0
-0.1155,0.1108,1.0078,-0.0534,2.4351,6.0229,0,0,0
-0.1121,0.1406,1.0256,1.4504,1.2443,3.7786,0,0,0
-0.1111,0.124,1.0337,-1.1603,2.6947,0.5267,0,0,0
-0.1267,0.0742,1.0344,-4.3206,5.7252,-0.8168,0,0,0
-0.1445,0.0518,1.019,-5.9695,7.374,0.0534,0,0,0
-0.1301,0.0566,1.0195,-5.4351,6.2595,2.1374,0,0,0
-0.1289,0.0898,1.0193,-2.8092,4.7634,1.9771,0,0,0
-0.123,0.1077,1.0225,-1.7863,3.5115,0.8092,0,0,0
-0.1074,0.1011,1.0251,-0.8779,3.7863,-0.4198,0,0,0
-0.1233,0.0967,1.0217,0.2977,3.5878,-1.3206,0,0,0
-0.1345,0.073,1.0264,1.1221,3.2061,-1.3817,0,0,0
-0.1433,0.0422,1.0344,-0.1756,4.3588,-0.2519,0,0,0
-0.1394,0.053,1.0317,-2.6107,6.5115,1.5496,0,0,0
-0.1184,0.0845,1.0471,-5.2519,9.0458,2.3969,0,0,0
-0.114,0.1138,1.0359,-5.1603,9.6565,1.3817,0,0,0
-0.1099,0.1033,1.0273,-3.0916,8.9771,-0.4351,0,0,0
-0.1394,0.0708,1.0198,-1.7176,8.229,-0.7939,0,0,0
-0.1357,0.0703,1.0166,-1.2061,8.542,1.1603,0,0,0
-0.1199,0.093,1.0078,-1.1221,7.771,1.8321,0,0,0
-0.1343,0.1096,1.0049,-1.4962,7.8168,0.0687,0,0,0
-0.1521,0.0642,1.0149,-2.229,7.9008,-1.0763,0,0,0
-0.1626,0.0203,1.0098,-3.2901,9.0229,0.9847,0,0,0
-0.1711,0.0085,0.9912,-4.7786,7.6107,3.7328,0,0,0
-0.1748,-0.0134,0.9397,-3.5802,4.4885,7.0305,0,0,0
0.0732,0.2678,1.052,-8.0229,7.6412,10.8168,0,0,0
-0.1899,0.1597,1.1687,-2.6565,8.4198,8.145,0,0,0
-0.092,0.1458,1.0283,5.8931,10.6183,9.2519,0,0,0
-0.1052,0.1853,0.967,1.229,15.2748,6.2672,0,0,0
-0.1538,0.1228,0.9561,3.3817,11.687,1.687,1,0,0
-0.1626,0.0908,1.0364,-3.3206,18.1069,-2.1832,1,0,0
-0.1995,0.0522,1.0103,-5.4427,15.2443,-0.3359,1,0,0
-0.2166,0.0437,1.002,-4.8015,11.9695,-2.458,1,0,0
-0.2102,0.0396,0.9492,-4.5573,9.2977,-3.5802,1,0,0
-0.2007,0.0498,0.9419,-5.2214,3.8931,-3.8092,1,0,0
-0.2979,-0.0066,1.0339,-2.1374,-2.8702,0.313,1,0,0
-0.1487,0.1184,1.0303,-2.3664,-4.6031,-1.2137,1,0,0
-0.1819,0.0747,0.9692,-2.2443,-5.8168,0.3206,1,0,0
-0.1443,0.1133,0.9888,-2.687,-6.0534,0.3664,1,0,0
-0.1379,0.1318,0.9839,-1.374,-5.8244,-1.1145,1,0,0
-0.1328,0.1223,0.9678,-1.3282,-6.8702,-2.6794,1,0,0
-0.1284,0.0942,0.9692,-1.4962,-6.9618,-2.6947,0,0,0
-0.1379,0.0906,0.9893,-1.0076,-6.4351,-1.7405,0,0,0
-0.1292,0.1072,1.0322,-0.5038,-5.2824,-2.1603,0,0,0
-0.1409,0.1189,1.033,-0.0153,-3.3511,-3.1908,0,0,0
-0.1382,0.1001,1.0264,-0.8168,-2.0916,-4.7863,0,0,0
-0.155,0.0596,1.0295,-2.3969,-0.7634,-5.7023,0,0,0
-0.1753,0.0386,1.0129,-0.9466,-1.7786,-4.5191,0,0,0
-0.1719,0.0493,1.0251,-0.7023,-2.6107,-2.3359,0,0,0
-0.1567,0.0903,1.0308,-0.8397,-2.6107,-2.0076,0,0,0
-0.155,0.085,1.0227,-0.3282,-1.5115,-3.6336,0,0,0
-0.1609,0.071,1.0085,0.8092,-2.7634,-3.8931,0,0,0
-0.167,0.0815,1.0154,2.4427,-4.7099,-2.9084,0,0,0
-0.1602,0.0972,1.0239,2.1756,-5.7557,-3.8168,0,0,0
-0.1611,0.0662,1.0161,1.5878,-4.2824,-4.7099,0,0,0
-0.1587,0.0691,1.0115,0.5725,-3.8626,-2.9389,0,0,0
-0.1458,0.1064,1.0154,0.6183,-3.9618,-1.9466,0,0,0
-0.1355,0.1406,1.0046,1.5649,-2.9313,-3.9542,0,0,0
-0.1287,0.1167,0.9902,1.4809,-1.5267,-6.1908,0,0,0
-0.1519,0.0825,0.9834,0.7252,-0.9924,-7.0382,0,0,0
-0.1621,0.074,0.9919,1.0076,-2.7634,-5.458,0,0,0
-0.1511,0.0947,1.0103,2.4198,-5.0,-5.0992,0,0,0
-0.1411,0.1274,0.9946,2.2061,-6.5115,-7.084,0,0,0
-0.1323,0.1431,1.0117,0.5038,-7.3053,-10.916,0,0,0
-0.1594,0.0898,1.0073,2.3511,-9.4046,-12.771,0,0,0
-0.1694,0.0752,0.9829,2.8015,-10.3817,-14.1603,0,0,0
-0.1501,0.0938,0.9617,5.374,-14.4427,-13.1374,0,0,0
-0.1416,0.1282,0.9585,6.3435,-15.5344,-15.6412,0,0,0
-0.1321,0.1062,0.9602,6.5802,-17.0916,-19.7786,0,0,0
-0.1357,0.033,0.9912,1.0458,-14.2519,-19.3817,0,0,0
-0.1785,0.0117,1.0027,0.9466,-13.8168,-16.2672,0,0,0
-0.1665,0.0308,0.9844,2.1679,-16.229,-12.3817,0,0,0
-0.1455,0.0818,0.9858,5.1374,-18.0382,-10.3053,0,0,0
-0.1211,0.1111,0.9973,6.8015,-17.9542,-9.7252,0,0,0
-0.0903,0.1372,1.0063,3.9466,-16.2061,-11.3359,0,0,0
-0.0955,0.1323,1.0305,3.3588,-15.0458,-14.2366,0,0,0
-0.0999,0.1025,1.0364,3.2366,-14.542,-15.374,0,0,0
-0.0994,0.1104,1.0471,4.1832,-14.1221,-14.4962,0,0,0
-0.1006,0.1128,1.0496,4.626,-13.4656,-14.7634,0,0,0
-0.0962,0.1074,1.0269,5.3817,-12.5191,-15.2748,0,0,0
-0.094,0.1221,1.0081,5.5802,-12.7176,-15.5954,0,0,0
-0.0935,0.146,1.0095,7.0382,-13.2672,-17.4275,0,0,0
-0.0837,0.1702,0.9954,8.2977,-13.8092,-20.8015,0,0,0
-0.0935,0.1423,1.0432,4.9542,-11.0229,-25.2595,0,0,0
-0.0989,0.114,1.0247,5.313,-11.1908,-27.2214,0,0,0
-0.0854,0.1184,1.0388,3.3359,-10.8397,-28.8473,0,0,0
-0.0928,0.0322,1.0852,0.5267,-9.8092,-30.5191,0,0,0
-0.1379,-0.0088,1.0237,5.0076,-9.916,-31.9084,0,0,0
-0.1445,-0.0391,1.0044,4.1298,-12.916,-24.542,0,0,0
-0.1121,0.0444,1.0325,6.0916,-15.9313,-16.6412,0,0,0
-0.0654,0.1584,1.032,7.374,-17.4046,-16.5496,0,0,0
-0.0237,0.2627,1.0264,7.3206,-16.8092,-23.0687,0,0,0
-0.0029,0.2981,1.0088,6.3282,-15.7252,-32.9695,0,0,0
-0.0061,0.2725,1.0229,2.4351,-11.4046,-42.7634,0,0,0
-0.0659,0.032,1.0618,-0.145,-5.7557,-48.0687,0,0,0
-0.1624,-0.0874,0.9465,2.229,-6.374,-42.084,0,0,0
-0.1689,-0.126,0.9441,0.9542,-11.0076,-25.5114,0,0,0
-0.1436,-0.0046,1.0073,1.7863,-14.9771,-10.5191,0,0,0
-0.0872,0.1052,1.0166,3.0687,-16.6107,-4.9695,0,0,0
-0.0254,0.2327,1.0068,3.4351,-16.9313,-7.6947,0,0,0
-0.0144,0.2776,1.0278,-0.1374,-14.6794,-16.8779,0,0,0
-0.0305,0.2026,1.0315,-1.2595,-11.4733,-23.9084,0,0,0
-0.0793,0.0713,1.0496,0.7405,-9.1069,-25.084,0,0,0
-0.1194,-0.0088,1.0173,3.542,-9.8092,-17.2595,0,0,0
-0.1091,-0.0488,1.0405,4.3282,-10.6489,-5.4351,0,0,0
-0.0962,0.0156,1.053,2.6107,-9.4275,5.084,0,0,0
-0.0503,0.1067,1.0728,-2.8015,-6.5725,10.6183,0,0,0
-0.0098,0.2097,1.0884,-6.8855,-3.2366,8.542,0,0,0
-0.0024,0.2556,1.0662,-5.5649,-2.7328,1.3588,0,0,0
-0.0168,0.2214,1.04,-1.626,-3.5115,-5.6031,0,0,0
-0.0439,0.1643,1.0366,1.2214,-4.7557,-9.2519,0,0,0
-0.0654,0.1003,1.0535,1.1374,-3.855,-8.7863,0,0,0
-0.0894,0.0603,1.0637,-0.2977,0.1603,-5.6565,0,0,0
-0.0825,0.0342,1.0652,-4.1298,2.5954,-0.7176,0,0,0
-0.0881,0.0815,1.0322,-4.9924,3.1069,1.2595,0,0,0
-0.0732,0.0959,1.0603,-6.9542,3.3053,1.4733,0,0,0
-0.0708,0.1008,1.061,-7.3511,2.8015,-0.4504,0,0,0
-0.083,0.084,1.0437,-5.5954,1.8855,-1.5496,0,0,0
-0.0835,0.0869,1.0444,-3.0,0.1679,-1.2977,0,0,0
-0.082,0.0798,1.0527,-1.0076,0.5573,-0.771,0,0,0
-0.0764,0.0686,1.0286,-0.1145,1.4351,-0.3664,0,0,0
-0.0754,0.0515,1.0396,-1.9237,2.3359,0.9389,0,0,0
-0.0906,0.001,1.0654,-3.4885,4.2824,3.8168,0,0,0
-0.0974,-0.0012,1.0457,-3.8244,5.4809,9.8702,0,0,0
-0.0693,0.062,1.0383,-3.7328,5.9466,17.1145,0,0,0
-0.0149,0.1589,1.0444,-5.3359,7.5649,17.7176,0,0,0
-0.0002,0.2339,1.0422,-7.3282,10.3206,13.4656,0,0,0
0.0005,0.207,1.0447,-11.2672,13.1832,7.1527,0,0,0
-0.0488,0.1418,1.0417,-11.6336,15.458,3.0687,0,0,0
-0.0781,0.0803,1.0234,-11.7863,16.0687,4.8779,0,0,0
-0.0916,0.0557,1.0371,-11.0229,16.6031,10.4885,0,0,0
-0.0835,0.1035,1.0264,-10.7252,18.0,13.9618,0,0,0
-0.064,0.1455,1.0125,-12.4198,19.9618,13.2977,0,0,0
-0.0681,0.167,1.0085,-15.1832,21.7405,9.0382,0,0,0
-0.0901,0.123,1.0278,-16.4046,22.1832,5.0458,0,0,0
-0.1106,0.0942,1.0146,-14.8092,21.3206,3.8244,0,0,0
-0.1367,0.0417,1.0161,-11.5725,18.7252,4.5802,0,0,0
-0.155,0.0271,0.9939,-6.3664,15.3893,7.1908,0,0,0
-0.1399,0.0376,1.0037,-3.9008,11.8855,10.0687,0,0,0
-0.1245,0.0808,0.9934,-4.4275,11.3588,10.7863,0,0,0
-0.1028,0.1182,1.0205,-6.9618,11.2061,8.7863,0,0,0
-0.1096,0.1096,1.0339,-8.0305,11.1374,5.1221,0,0,0
-0.1287,0.0688,1.0154,-6.3053,8.9008,3.7786,0,0,0
-0.1384,0.0518,1.0125,-4.0305,5.916,5.2824,0,0,0
-0.1331,0.0715,1.0286,-3.1756,4.9313,6.1832,0,0,0
-0.115,0.1077,1.022,-3.084,6.2748,6.1145,0,0,0
-0.0959,0.1414,1.0298,-3.0229,7.2366,3.3588,0,0,0
-0.1035,0.1362,1.0076,-2.7786,8.4198,-1.1527,0,0,0
-0.1021,0.0845,0.9929,-5.1298,9.2519,-4.2824,0,0,0
-0.1523,0.0383,0.9939,-4.771,8.9771,-3.7176,0,0,0
-0.146,0.0435,0.9861,-3.7023,6.8244,-0.3817,0,0,0
-0.1216,0.0977,1.0166,-3.7557,5.9618,1.9695,0,0,0
-0.1147,0.1377,1.0134,-4.6107,6.7481,0.2443,0,0,0
-0.1067,0.1343,1.0054,-5.7481,8.3282,-3.4962,0,0,0
-0.1238,0.1099,1.0173,-4.6947,8.0305,-4.6489,0,0,0
-0.1355,0.0999,1.0054,-2.7023,7.6183,-4.4046,0,0,0
-0.1379,0.0991,1.0227,-0.5573,7.8626,-3.7328,0,0,0
-0.1323,0.1047,1.0034,0.6489,8.4198,-4.5725,0,0,0
-0.1331,0.0659,1.0107,0.0153,8.8702,-5.9695,0,0,0
-0.1663,0.0215,0.9973,-0.3664,10.3969,-4.0,0,0,0
-0.1619,0.0278,1.0056,0.5496,8.7786,-0.5954,0,0,0
-0.1448,0.0571,1.0317,1.2824,7.9466,1.6412,0,0,0
-0.1353,0.0823,1.0344,3.2824,8.1145,2.5573,0,0,0
-0.1294,0.1125,1.0264,3.2214,8.7328,1.4885,0,0,0
-0.1199,0.1243,1.0173,2.145,9.5573,-0.2901,0,0,0
-0.1274,0.1184,1.0071,1.2901,11.0382,-2.5954,0,0,0
-0.1594,0.0461,1.011,0.9237,11.1069,-3.5802,0,0,0
-0.175,0.0303,0.979,0.6565,10.5115,-0.1908,0,0,0
-0.1621,0.0591,1.0044,2.2748,8.1832,3.3588,0,0,0
-0.1589,0.0996,1.0071,3.8702,7.1145,3.7634,0,0,0
-0.156,0.105,1.0022,2.374,6.0992,1.8092,0,0,0
-0.1633,0.0779,1.0029,0.8931,6.2748,1.1603,0,0,0
-0.1775,0.0754,0.989,-0.145,5.2672,2.1679,0,0,0
-0.1765,0.0835,1.0159,-0.2443,3.5954,3.1374,0,0,0
-0.1753,0.1021,0.9998,0.9847,2.0611,3.0611,0,0,0
-0.1592,0.1165,1.0098,0.4656,1.4198,2.1069,0,0,0
-0.1609,0.1042,1.0061,-0.0076,1.7481,0.9618,0,0,0
-0.1655,0.0938,1.0042,-1.2901,2.229,0.542,0,0,0
-0.1733,0.0698,1.0066,-1.3511,2.4122,1.2443,0,0,0
-0.1772,0.0725,1.0129,-0.7023,2.2672,2.5878,0,0,0
-0.1765,0.0789,1.0251,0.771,3.084,4.084,0,0,0
-0.1606,0.0986,1.0142,0.9771,4.1908,4.8244,0,0,0
-0.1514,0.1162,1.0083,-0.2061,5.8855,4.7176,0,0,0
-0.1453,0.1331,0.9993,-0.8244,6.4198,3.3511,0,0,0
-0.1467,0.146,1.0051,-1.7863,6.5191,1.2748,0,0,0
-0.1638,0.1316,1.0134,-1.916,6.7405,-1.7939,0,0,0
-0.1721,0.0698,1.0149,-2.3206,7.2901,-3.2595,0,0,0
-0.1953,0.0342,0.9893,-4.458,8.1756,-1.3206,0,0,0
-0.1855,0.0574,0.9915,-4.5344,7.6718,2.1298,0,0,0
-0.1689,0.1057,1.0061,-2.229,5.5496,1.9237,0,0,0
-0.1675,0.1118,1.0059,0.3969,2.2366,0.0534,0,0,0
-0.1741,0.1057,1.0176,1.8168,-0.0611,-2.2977,0,0,0
-0.1782,0.0725,1.0154,2.7023,-1.3359,-2.8473,0,0,0
-0.2041,0.0264,1.0032,2.771,-1.0076,-1.0992,0,0,0
-0.2009,0.0315,0.9954,2.3893,-0.9084,3.0382,0,0,0
-0.1694,0.0938,1.0093,2.7023,-0.7634,5.4122,0,0,0
-0.1567,0.1553,1.002,3.9695,-1.8397,2.9084,0,0,0
-0.1509,0.1638,0.9912,5.7176,-3.1603,-0.8855,0,0,0
-0.1616,0.1655,0.9922,7.9542,-5.0458,-4.1145,0,0,0
-0.1658,0.1543,1.0208,9.916,-6.7557,-7.2672,0,0,0
-0.1765,0.1384,1.0005,15.1069,-7.8321,-10.2214,0,0,0
-0.1897,0.083,0.9807,15.4733,-7.8168,-9.4656,0,0,0
-0.1973,0.1108,0.9475,15.9771,-9.3817,-9.5573,0,0,0
-0.187,0.0964,0.9719,11.6947,-8.1145,-10.5649,0,0,0
-0.1843,0.0818,1.0049,7.2595,-6.4198,-11.4809,0,0,0
-0.1948,0.0698,0.9861,4.4351,-5.7099,-10.3969,0,0,0
-0.1902,0.1108,0.9871,3.084,-7.1145,-9.1908,0,0,0
-0.1699,0.124,0.9995,3.4198,-9.0229,-9.8779,0,0,0
-0.1738,0.1497,0.9822,5.0763,-10.3893,-11.145,0,0,0
-0.1465,0.1521,0.9902,6.2595,-12.0076,-11.7786,0,0,0
-0.1401,0.1716,0.9978,6.6336,-12.4962,-12.2824,0,0,0
-0.1479,0.1707,0.9971,6.3664,-11.8015,-14.4046,0,0,0
-0.1321,0.1733,0.9971,4.8779,-9.7939,-16.5649,0,0,0
-0.1331,0.1592,1.03,2.0992,-7.9542,-18.6794,0,0,0
-0.1646,0.0869,1.0251,2.4198,-6.626,-19.5496,0,0,0
-0.1936,0.0515,0.9954,4.0992,-7.5725,-16.2977,0,0,0
-0.1758,0.0674,0.9768,5.1908,-9.8626,-10.4275,0,0,0
-0.1365,0.1511,1.0281,4.2901,-10.1756,-7.9618,0,0,0
-0.1106,0.2102,1.0476,2.3282,-8.542,-10.3435,0,0,0
-0.0999,0.1897,1.0444,0.0916,-5.6031,-13.2443,0,0,0
-0.1196,0.1543,1.0449,-2.2137,-3.0687,-15.916,0,0,0
-0.1658,0.0889,1.0339,-1.6565,-2.0076,-16.3969,0,0,0
-0.1736,0.0764,0.9985,-0.7481,-2.3206,-13.5573,0,0,0
-0.1484,0.1047,1.0093,0.5878,-2.7099,-10.3053,0,0,0
-0.134,0.1584,1.0171,1.2366,-1.4504,-10.5725,0,0,0
-0.1272,0.1663,1.0142,1.855,-1.4504,-11.9847,0,0,0
-0.1357,0.1504,1.0139,2.0076,-1.0076,-13.5725,0,0,0
-0.1514,0.1069,1.022,2.145,-0.4122,-14.0229,0,0,0
-0.1799,0.0742,1.0071,3.3893,-0.4122,-12.9008,0,0,0
-0.1643,0.0862,1.002,4.2672,-1.4198,-9.771,0,0,0
-0.1536,0.125,1.0261,3.458,-1.4733,-8.5344,0,0,0
-0.144,0.1392,1.0305,1.7176,0.5038,-8.7557,0,0,0
-0.1401,0.1624,1.0278,0.8168,1.7328,-9.7252,0,0,0
-0.1418,0.1643,1.0347,0.0076,2.0992,-10.4733,0,0,0
-0.1506,0.1538,1.0366,0.542,3.4427,-11.5496,0,0,0
-0.1477,0.1423,1.0361,0.2901,5.4046,-11.0687,0,0,0
-0.1494,0.1208,1.0413,-0.2519,7.0763,-11.6183,0,0,0
-0.1877,0.0803,1.0061,-0.9084,7.5267,-13.0153,0,0,0
-0.1973,0.0437,0.9954,-1.7023,6.5954,-10.3435,0,0,0
-0.1985,0.0811,1.0066,-0.6565,4.8626,-6.7786,0,0,0
-0.1738,0.1177,0.9983,-0.8015,3.313,-3.7328,0,0,0
-0.1484,0.1399,1.0439,-1.1069,4.4351,-2.8779,0,0,0
-0.1555,0.1797,1.0129,-2.6641,4.4885,-5.0992,0,0,0
-0.1624,0.1233,1.0139,-2.9542,4.8626,-5.5649,0,0,0
-0.1794,0.0928,0.9834,-3.1221,4.2595,-4.3053,0,0,0
-0.1885,0.0764,0.9792,-2.6718,2.6718,-1.6412,0,0,0
-0.1833,0.095,1.0073,-2.0,0.9008,0.7557,0,0,0
-0.1587,0.1345,1.0176,-2.0534,0.9924,1.4656,0,0,0
-0.1443,0.1697,1.0378,-3.5191,3.0687,-0.0076,0,0,0
-0.1436,0.1685,1.0325,-4.4504,4.9008,-2.4427,0,0,0
-0.1621,0.1604,1.0239,-3.916,5.5191,-4.4427,0,0,0
-0.1643,0.1292,1.0193,-3.5802,5.6107,-5.855,0,0,0
-0.1685,0.0999,1.0266,-2.687,5.6718,-5.9237,0,0,0
-0.1958,0.0803,1.0374,-1.4809,6.1985,-5.458,0,0,0
-0.1846,0.0815,1.0159,-1.0534,6.3588,-3.2595,0,0,0
-0.1609,0.1257,1.0244,-2.0,6.9542,-2.5878,0,0,0
-0.1523,0.1638,1.0171,-3.3359,8.3359,-3.9389,0,0,0
-0.1506,0.1719,1.0183,-2.855,8.6718,-6.4275,0,0,0
-0.1667,0.1565,1.021,-2.5038,8.4962,-8.2824,0,0,0
-0.1814,0.1245,1.0022,-0.7023,7.7634,-9.0382,0,0,0
-0.1836,0.1162,1.009,0.6641,7.8626,-9.2519,0,0,0
-0.1799,0.1211,1.0083,1.2443,8.0382,-9.5038,0,0,0
-0.1738,0.147,1.0193,-0.0534,10.2214,-10.626,0,0,0
-0.1704,0.1477,1.0122,-2.0076,11.5267,-12.4046,0,0,0
-0.1831,0.1521,1.0098,-3.5878,12.1221,-13.9618,0,0,0
-0.1846,0.1355,1.0002,-3.0534,12.0611,-14.7328,0,0,0
-0.1904,0.1375,0.9897,-1.9771,11.1603,-14.542,0,0,0
-0.1868,0.1399,0.9856,-0.7481,9.6031,-15.1985,0,0,0
-0.1956,0.137,0.998,1.1527,8.6641,-16.2061,0,0,0
-0.2166,0.1006,0.9802,1.6641,8.6641,-16.3206,0,0,0
-0.2253,0.0789,0.9685,1.4733,8.1603,-14.0687,0,0,0
-0.2227,0.0918,0.9626,1.2214,8.0,-11.313,0,0,0
-0.2117,0.1335,0.9866,0.9847,7.2519,-9.7176,0,0,0
-0.1973,0.157,0.9854,1.2366,6.855,-9.7176,0,0,0
-0.1863,0.1753,0.9956,0.6107,5.8321,-11.1374,0,0,0
-0.2041,0.1653,0.99,0.1908,5.7481,-12.6031,0,0,0
-0.2102,0.1265,0.9863,-0.8473,5.7557,-13.3969,0,0,0
-0.2371,0.0857,0.9651,-1.2214,6.7099,-12.5802,0,0,0
-0.2415,0.071,0.9636,-1.5038,5.3664,-9.313,0,0,0
-0.2405,0.0923,0.9702,0.084,3.6031,-5.8092,0,0,0
-0.2278,0.1116,0.9761,1.4885,0.3588,-4.4198,0,0,0
-0.2136,0.1296,0.9812,2.2672,-2.0992,-3.6565,0,0,0
-0.2122,0.1477,1.0098,1.0,-2.4046,-4.5878,0,0,0
-0.2058,0.1392,1.0215,-1.4046,-0.1298,-5.0763,0,0,0
-0.2131,0.1123,1.0117,-3.6183,2.7634,-5.855,0,0,0
-0.2346,0.0945,0.9961,-4.0153,2.9237,-4.9924,0,0,0
-0.239,0.084,1.0029,-3.0534,2.5878,-3.7328,0,0,0
-0.2317,0.0911,1.009,-2.6565,2.5038,-2.1298,0,0,0
-0.2144,0.1101,1.019,-2.9008,3.3893,-1.2443,0,0,0
-0.2151,0.1184,1.0208,-3.2901,4.0763,-1.4885,0,0,0
-0.2219,0.1169,1.0088,-3.5038,3.855,-1.5038,0,0,0
-0.2214,0.1128,1.0117,-3.7939,4.3359,-1.6794,0,0,0
-0.2278,0.1057,1.0127,-3.542,5.0382,-2.0534,0,0,0
-0.2229,0.0938,1.0103,-4.4046,6.2977,-1.8321,0,0,0
-0.2266,0.1025,1.001,-5.9389,7.8244,-1.1527,0,0,0
-0.2268,0.1016,0.9939,-6.2901,7.9466,-1.0382,0,0,0
-0.2327,0.1025,0.9922,-5.0458,7.0229,-0.4656,0,0,0
-0.2197,0.1113,1.0,-4.2366,6.458,0.5115,0,0,0
-0.2153,0.1448,1.01,-3.2061,6.5191,0.3664,0,0,0
-0.2205,0.1411,1.0095,-3.1679,7.4656,-1.7328,0,0,0
-0.2288,0.1282,0.9922,-3.5115,7.8397,-3.0153,0,0,0
-0.2427,0.1111,0.9966,-3.855,8.5115,-3.9008,0,0,0
-0.2485,0.103,0.9819,-3.6718,8.0916,-3.5878,0,0,0
-0.2488,0.0994,0.9797,-2.9847,7.313,-4.0611,0,0,0
-0.25,0.1018,0.9868,-1.7099,6.3969,-4.2214,0,0,0
-0.249,0.1067,1.0007,-1.2824,6.3969,-4.4427,0,0,0
-0.2456,0.1133,0.9968,-1.1298,6.4275,-5.2366,0,0,0
-0.2532,0.1233,0.9824,-0.9466,6.145,-5.7863,0,0,0
-0.2515,0.1138,0.9902,-0.7252,4.8702,-6.7405,0,0,0
-0.2615,0.1111,0.9902,0.0534,3.771,-7.0458,0,0,0
-0.2637,0.1052,0.9963,0.9924,3.0687,-6.8015,0,0,0
-0.259,0.1001,1.0,1.0229,3.6107,-6.6565,0,0,0
-0.2542,0.1067,0.9802,1.0534,3.9924,-6.3359,0,0,0
-0.2505,0.1216,0.9858,0.9542,4.0153,-6.1069,0,0,0
-0.24,0.1377,0.9873,0.7786,3.916,-6.5115,0,0,0
-0.2429,0.1387,1.0051,-0.145,4.9542,-7.6412,0,0,0
-0.2444,0.1375,1.0085,-0.3588,6.3893,-8.6794,0,0,0
-0.2539,0.1184,1.0034,-0.1756,7.1298,-9.7405,0,0,0
-0.2581,0.1177,1.0051,0.2366,7.4504,-10.4885,0,0,0
-0.2556,0.1287,1.0083,0.5344,7.7405,-10.7786,0,0,0
-0.2512,0.1262,1.0081,0.7939,8.5725,-12.374,0,0,0
-0.2629,0.1116,1.0002,2.0153,9.374,-13.3969,0,0,0
-0.28,0.0864,0.988,2.313,9.9618,-13.2214,0,0,0
-0.2939,0.0728,0.97,3.2901,9.6107,-12.0076,0,0,0
-0.2842,0.0889,0.9705,3.9008,8.5649,-9.9389,0,0,0
-0.2686,0.1323,0.9717,3.6489,7.8855,-8.9771,0,0,0
-0.2515,0.1511,0.9817,2.542,8.5496,-9.5725,0,0,0
-0.2546,0.1587,0.9854,0.9618,9.916,-10.4885,0,0,0
-0.2571,0.1494,1.0034,-0.6565,11.4962,-11.5802,0,0,0
-0.2764,0.1326,0.9888,-1.4809,12.8702,-11.7405,0,0,0
-0.2839,0.1128,0.9854,-1.7328,12.6718,-12.5115,0,0,0
-0.2969,0.0947,0.9604,-0.8931,11.3664,-12.0305,0,0,0
-0.3032,0.0891,0.9673,0.145,9.6107,-11.2748,0,0,0
-0.2983,0.0979,0.9587,0.6947,9.145,-9.8931,0,0,0
-0.29,0.1055,0.9648,0.7252,9.1374,-9.3893,0,0,0
-0.29,0.1074,0.9653,-0.5573,8.687,-9.8626,0,0,0
-0.2981,0.1006,0.957,-0.4351,7.458,-9.2977,0,0,0
-0.2993,0.1089,0.9507,-0.313,5.9389,-7.8779,0,0,0
-0.2986,0.1069,0.9607,-0.8397,5.4046,-6.7481,0,0,0
-0.3057,0.1086,0.949,-1.3435,4.916,-6.1679,0,0,0
-0.3057,0.0913,0.959,-1.6718,3.8931,-4.8931,0,0,0
-0.3057,0.0967,0.9475,-2.4351,4.3053,-3.4733,0,0,0
-0.292,0.1248,0.9651,-2.8626,4.1145,-2.4198,0,0,0
-0.2925,0.1404,0.9636,-3.8397,4.0229,-3.1603,0,0,0
-0.301,0.125,0.9451,-3.229,2.5496,-4.7328,0,0,0
-0.3123,0.1018,0.9329,-1.6412,-0.7099,-4.7786,0,0,0
-0.3142,0.0872,0.9404,-0.6412,-3.3969,-3.9924,0,0,0
-0.314,0.0759,0.959,0.1908,-4.2977,-3.4351,0,0,0
-0.1765,0.342,1.0178,-6.0,3.6412,-4.9084,0,0,0
-0.3494,0.0313,1.02,-6.542,3.9237,-5.2214,0,0,0
-0.3069,0.0818,0.9089,-3.4275,2.8015,-2.7099,0,0,0
-0.3245,0.0798,0.9417,-0.7405,-3.7939,-1.3588,1,0,0
-0.3142,0.1057,0.9907,2.0382,-3.2901,0.1069,1,0,0
-0.3003,0.1094,0.9812,1.6107,-2.6489,-0.229,1,0,0
-0.3154,0.1084,0.9614,-0.9237,-2.8168,-1.8168,1,0,0
-0.3508,0.0696,0.9612,-1.4198,-1.8473,-1.6412,1,0,0
-0.3525,0.0581,0.9634,-1.3969,-5.4885,2.771,1,0,0
-0.3098,0.063,0.9626,-0.626,-6.9695,4.5344,1,0,0
-0.3264,0.1077,0.9089,0.5954,-5.5267,8.7481,1,0,0
-0.2974,0.1694,1.0071,-2.2977,-4.5496,4.5344,1,0,0
-0.2776,0.1401,0.9868,-2.7634,-4.4046,1.5267,1,0,0
-0.2964,0.1301,0.9761,-1.7786,-4.4351,0.0534,1,0,0
-0.3018,0.1074,0.9529,-1.0305,-6.1679,0.5802,1,0,0
-0.2888,0.1094,0.9614,-0.8626,-6.2061,1.542,1,0,0
-0.2871,0.1128,0.9758,-2.2214,-4.4962,1.687,1,0,0
-0.2822,0.1223,0.9741,-4.3053,-2.2366,1.6031,1,0,0
-0.2842,0.1104,0.9609,-4.9924,-1.7481,1.4656,0,0,0
-0.2917,0.115,0.9668,-4.0076,-2.374,1.4962,0,0,0
-0.2866,0.1135,0.9905,-2.8931,-2.4046,1.8626,0,0,0
-0.2954,0.1091,0.9912,-2.4198,-2.084,1.1221,0,0,0
-0.2954,0.1091,1.0002,-2.313,-1.7099,0.5115,0,0,0
-0.2974,0.1023,1.0051,-2.5191,-0.8626,0.0611,0,0,0
-0.3022,0.1006,0.9866,-2.6641,-0.9389,-0.6183,0,0,0
-0.3071,0.0984,0.9875,-1.8626,-1.7023,-0.8626,0,0,0
-0.3059,0.0974,0.9829,-1.2672,-2.5802,-0.7252,0,0,0
-0.3037,0.0898,0.9731,-0.3511,-3.5115,-0.7405,0,0,0
-0.3115,0.0825,0.9712,-0.687,-4.2061,0.4504,0,0,0
-0.3108,0.094,0.9756,-0.6565,-4.5878,2.4809,0,0,0
-0.2864,0.1226,0.9724,-1.5725,-4.6565,3.3053,0,0,0
-0.2842,0.1348,0.9814,-1.0458,-5.0687,3.0305,0,0,0
-0.2893,0.1211,0.9827,-0.7863,-5.1145,2.9695,0,0,0
-0.2893,0.1003,0.9802,-0.145,-5.4504,4.2137,0,0,0
-0.3,0.0842,0.96,-0.5802,-5.4122,5.6412,0,0,0
-0.2913,0.0854,0.9495,-1.542,-5.8092,8.4504,0,0,0
-0.2815,0.0928,0.967,-2.5878,-5.8855,10.5115,0,0,0
-0.2744,0.1113,0.96,-2.5954,-7.5954,11.3206,0,0,0
-0.2749,0.0913,0.9883,-2.3053,-8.1679,11.9237,0,0,0
-0.2817,0.0129,1.0334,-3.0305,-5.8244,15.8702,0,0,0
-0.2813,0.0569,0.9658,-5.8168,-3.0763,20.5954,0,0,0
-0.2705,0.085,0.9077,-6.3359,-8.0305,22.8626,0,0,0
-0.25,0.1221,0.9055,-2.5954,-14.5573,24.4962,0,0,0
-0.2268,0.1128,0.8904,-0.3664,-20.3206,24.2214,0,0,0
-0.2156,0.1204,0.9487,1.8397,-22.145,24.9389,0,0,0
-0.208,0.1787,0.9443,-6.0611,-5.9237,17.374,0,0,0
-0.2456,0.1523,0.8328,-5.4656,-13.145,16.7405,0,0,0
-0.2505,0.0471,0.9304,-10.7176,-14.7099,15.4122,0,0,0
-0.2349,0.1248,0.8572,-7.3282,-22.5725,15.771,0,0,0
-0.4299,-0.0073,1.2925,-43.3511,11.7023,27.3435,0,0,0
-0.2605,0.0112,0.8613,-14.458,3.4656,50.9389,0,0,0
-0.2681,0.1233,0.9612,-23.5344,8.7557,45.4198,0,0,0
-0.2559,0.2393,0.9065,-15.9008,-11.5191,35.9771,0,0,0
-0.2378,0.1968,0.9785,-10.374,-14.5954,22.3359,0,0,0
-0.2451,0.1724,1.0334,-3.1374,-17.5038,13.0611,0,0,0
-0.2603,0.1238,1.0376,-0.9237,-14.7481,9.3435,0,0,0
-0.2734,0.0771,1.033,-1.855,-9.7099,11.3359,0,0,0
-0.2639,0.0879,1.0063,-4.1679,-5.0763,13.5954,0,0,0
-0.2656,0.0947,0.9497,-6.9847,-4.374,13.4656,0,0,0
-0.2568,0.1099,0.9277,-8.8473,-7.542,12.3664,0,0,0
-0.2524,0.1025,0.95,-8.458,-11.4427,10.8397,0,0,0
-0.2507,0.1008,0.9639,-6.7481,-12.9084,10.1527,0,0,0
-0.248,0.0808,0.9583,-5.4504,-14.9542,10.9771,0,0,0
-0.2363,0.0833,0.9038,-4.5725,-18.1603,12.7176,0,0,0
-0.2151,0.1082,0.8711,-6.4809,-24.0229,13.4962,0,0,0
-0.1963,0.1357,0.9099,-7.9313,-29.8397,12.0,0,0,0
-0.1934,0.1543,0.9197,-8.9466,-34.9618,8.4962,0,0,0
-0.1816,0.1299,0.9529,-9.3282,-37.2595,5.1145,0,0,0
-0.1765,0.1067,0.9524,-11.7939,-38.2748,2.8702,0,0,0
-0.179,0.0906,0.9902,-14.8092,-37.8092,1.7176,0,0,0
-0.186,0.0562,1.0142,-16.1908,-37.2519,2.458,0,0,0
-0.1914,0.0232,1.0381,-13.5267,-35.8397,5.0229,0,0,0
-0.1807,0.0427,1.0205,-12.7328,-35.6489,9.1603,0,0,0
-0.1702,0.0688,1.0496,-12.7481,-35.1756,11.1298,0,0,0
-0.1616,0.1057,1.0984,-11.4504,-31.8779,9.0992,0,0,0
-0.1643,0.1001,1.1174,-8.7099,-26.5725,6.4962,0,0,0
-0.1619,0.0947,1.0952,-5.771,-22.3206,5.2595,0,0,0
-0.1514,0.0867,1.0706,-4.313,-18.7557,5.9618,0,0,0
-0.1462,0.0994,1.0913,-3.0153,-15.5267,5.855,0,0,0
-0.1421,0.0986,1.0955,-1.5496,-11.5878,4.5191,0,0,0
-0.1482,0.0769,1.0588,-1.1374,-6.6794,4.0611,0,0,0
-0.1504,0.0791,1.0164,-2.084,-5.2748,5.084,0,0,0
-0.1531,0.0833,0.9973,-1.2519,-5.7176,6.1832,0,0,0
-0.1565,0.0911,0.9849,-1.6489,-7.8702,6.5954,0,0,0
-0.1628,0.1035,0.9988,-0.0611,-9.1832,6.1756,0,0,0
-0.1514,0.094,1.0007,1.4733,-11.0611,6.0153,0,0,0
-0.1345,0.1057,1.012,2.8779,-11.4733,7.0229,0,0,0
-0.1301,0.115,1.0073,3.3511,-11.9695,7.2824,0,0,0
-0.1174,0.1145,1.0159,2.7863,-11.3359,6.5573,0,0,0
-0.114,0.1018,1.0286,2.2519,-10.4885,6.0,0,0,0
-0.1228,0.0938,1.0366,2.855,-9.916,7.5038,0,0,0
-0.1267,0.104,1.0283,3.374,-9.4122,9.7252,0,0,0
-0.1172,0.1074,1.0183,3.7023,-8.6412,11.1298,0,0,0
-0.0957,0.1292,1.012,3.626,-9.2672,12.4885,0,0,0
-0.0808,0.1643,0.9976,3.0076,-10.771,11.4198,0,0,0
-0.0676,0.1926,0.98,0.2672,-12.1832,8.916,0,0,0
-0.0562,0.1899,0.9971,-4.9924,-12.3435,4.5038,0,0,0
-0.0801,0.1335,1.0203,-8.0916,-11.5038,0.5725,0,0,0
-0.1133,0.1182,1.0364,-7.6794,-9.9237,1.1145,0,0,0
-0.1252,0.1074,1.0322,-7.0229,-8.5038,5.5191,0,0,0
-0.1233,0.1255,1.0364,-6.229,-6.5267,9.1985,0,0,0
-0.1057,0.1392,1.0327,-4.7099,-6.0763,9.8626,0,0,0
-0.0923,0.1504,1.0249,-4.1985,-6.0611,8.8015,0,0,0
-0.0869,0.1638,1.0063,-5.0153,-8.2061,7.0611,0,0,0
-0.0769,0.1689,1.0413,-4.855,-9.8321,4.7481,0,0,0
-0.0698,0.1606,1.0693,-4.1679,-9.1145,2.3588,0,0,0
-0.0764,0.1331,1.0903,-3.2977,-6.4351,0.6718,0,0,0
-0.0962,0.1294,1.0811,-2.3511,-3.2824,0.0763,0,0,0
-0.1013,0.1235,1.0527,-2.6412,-1.0305,0.1221,0,0,0
-0.0972,0.1206,1.0247,-4.2061,-1.1603,0.6412,0,0,0
-0.0952,0.1257,1.0156,-6.2443,-2.3053,-0.5725,0,0,0
-0.0977,0.1294,1.0205,-7.9924,-3.4809,-2.2824,0,0,0
-0.0918,0.1221,1.0413,-9.8855,-3.4122,-3.2443,0,0,0
-0.0854,0.1167,1.062,-9.9466,-1.5802,-4.0763,0,0,0
-0.0894,0.1086,1.0637,-7.6794,0.2672,-5.5115,0,0,0
-0.0925,0.1169,1.0481,-4.6336,0.229,-6.9618,0,0,0
-0.1023,0.1091,1.0247,-2.7786,-1.3511,-7.9847,0,0,0
-0.0947,0.093,1.0186,-1.3359,-2.8168,-8.5802,0,0,0
-0.0989,0.0791,1.0183,-1.145,-4.3435,-8.4656,0,0,0
-0.1016,0.0688,1.0437,-1.8244,-4.6718,-7.916,0,0,0
-0.0996,0.0579,1.053,-3.2061,-3.3664,-6.2672,0,0,0
-0.0999,0.033,1.0776,-4.5573,-1.1756,-4.3359,0,0,0
-0.1057,0.043,1.0588,-3.6412,1.3359,-1.771,0,0,0
-0.1052,0.0542,1.042,-3.2977,1.8626,0.6718,0,0,0
-0.0894,0.0779,1.0286,-2.4351,1.9771,1.6336,0,0,0
