ax,ay,az,gx,gy,gz,left_click,right_click
-0.3635,-0.259,0.887,-0.1145,-3.8092,-0.5191,0,0,0
-0.3604,-0.2544,0.8872,0.0611,-5.0,-0.1374,0,0,0
-0.3472,-0.2358,0.9009,-0.3282,-6.5344,0.3969,0,0,0
-0.3618,-0.2368,0.9062,-1.3969,-8.2595,0.2061,0,0,0
-0.3474,-0.2385,0.9219,-2.1145,-9.4198,0.1298,0,0,0
-0.3452,-0.2324,0.937,-2.2977,-9.8321,0.0305,0,0,0
-0.3477,-0.2378,0.9363,-2.2595,-9.8092,-0.771,0,0,0
-0.3445,-0.2363,0.9399,-3.6947,-8.7634,-1.2519,0,0,0
-0.3306,-0.2444,0.9458,-4.4733,-7.2366,-1.771,0,0,0
-0.3296,-0.2485,0.9446,-5.0611,-6.1527,-1.6794,0,0,0
-0.3208,-0.2549,0.9482,-5.145,-5.4656,-1.2366,0,0,0
-0.3296,-0.2488,0.948,-4.771,-4.9466,-1.2214,0,0,0
-0.3416,-0.2493,0.9431,-4.4275,-5.4962,-1.0305,0,0,0
-0.3257,-0.2527,0.9502,-4.0763,-5.5191,-1.7481,0,0,0
-0.3379,-0.2546,0.9485,-3.0992,-4.8397,-2.0458,0,0,0
-0.3296,-0.2441,0.9363,-4.1298,-5.2366,-2.313,0,0,0
-0.3242,-0.2625,0.9375,-5.5954,-5.1221,-2.2672,0,0,0
-0.3257,-0.2686,0.949,-4.9771,-4.8855,-2.0076,0,0,0
-0.3232,-0.2686,0.9487,-3.916,-4.4809,-1.626,0,0,0
-0.325,-0.2585,0.9451,-3.5802,-3.8092,-1.2901,0,0,0
-0.3289,-0.2561,0.9363,-4.1298,-3.3511,-1.9618,0,0,0
-0.3254,-0.2668,0.9426,-4.374,-3.1374,-2.4122,0,0,0
-0.3286,-0.2742,0.9346,-3.9466,-3.3969,-2.4656,0,0,0
-0.3274,-0.2781,0.9211,-3.4275,-4.2824,-1.9542,0,0,0
-0.325,-0.2854,0.9263,-2.1908,-5.5878,-1.0,0,0,0
-0.3308,-0.2771,0.938,-1.0763,-6.2366,-1.0305,0,0,0
-0.3281,-0.2756,0.9272,-0.0687,-7.0611,-0.9466,0,0,0
-0.3289,-0.2698,0.9275,0.1527,-7.5878,-1.3282,0,0,0
-0.3223,-0.2771,0.9282,-0.3359,-7.3664,-1.0687,0,0,0
-0.3147,-0.2759,0.9348,-0.6565,-6.9771,-0.5038,0,0,0
-0.3145,-0.2722,0.9387,-0.3435,-6.1603,0.1679,0,0,0
-0.3057,-0.2722,0.9402,-0.6947,-4.7939,0.6947,0,0,0
-0.3252,-0.2666,0.9302,-0.5802,-3.458,0.7023,0,0,0
-0.3223,-0.2681,0.9214,-1.4198,-3.8092,0.542,0,0,0
-0.3271,-0.28,0.917,-1.8321,-4.1985,0.4046,0,0,0
-0.3164,-0.2949,0.926,-0.9695,-5.0076,1.1221,0,0,0
-0.3174,-0.3032,0.9238,-0.145,-6.1145,2.5649,0,0,0
-0.3142,-0.301,0.9265,0.5267,-6.145,4.084,0,0,0
-0.3042,-0.2966,0.9419,0.5344,-5.1527,5.5496,0,0,0
-0.3062,-0.2886,0.9507,-0.5115,-3.8321,7.4656,0,0,0
-0.3032,-0.282,0.9529,-1.9008,-2.542,8.7405,0,0,0
-0.304,-0.2778,0.9587,-3.1756,-0.6565,8.7481,0,0,0
-0.3059,-0.2737,0.9636,-3.7481,-0.0076,8.9542,0,0,0
-0.3015,-0.2864,0.9636,-4.4198,0.4198,9.0611,0,0,0
-0.304,-0.2883,0.9751,-4.2672,1.6794,11.2366,0,0,0
-0.2959,-0.2866,0.9836,-4.4046,3.3893,12.8473,0,0,0
-0.3,-0.2686,0.99,-4.6489,5.5191,14.7481,0,0,0
-0.2974,-0.2502,0.9924,-6.7099,8.6336,14.6336,0,0,0
-0.2917,-0.2336,0.9941,-8.9618,10.9924,13.7328,0,0,0
-0.3022,-0.2417,0.9968,-11.4122,13.229,13.1985,0,0,0
-0.3193,-0.248,0.9841,-12.7557,14.5954,13.1679,0,0,0
-0.3157,-0.2522,0.9778,-12.4046,15.0916,13.4885,0,0,0
-0.3149,-0.2544,0.981,-11.4198,15.687,14.3206,0,0,0
-0.3406,-0.249,0.9653,-9.5878,16.1298,14.4351,0,0,0
-0.3406,-0.23,0.95,-9.458,15.916,13.3969,0,0,0
-0.3503,-0.229,0.9353,-10.2366,15.6107,12.5649,0,0,0
-0.3435,-0.2349,0.9309,-10.1908,14.5649,11.7863,0,0,0
-0.3389,-0.2361,0.9351,-9.8473,15.7557,12.2443,0,0,0
-0.3494,-0.2446,0.9412,-9.5191,16.3588,13.2901,0,0,0
-0.3403,-0.2429,0.9524,-10.313,18.0229,13.855,0,0,0
-0.354,-0.2266,0.9397,-11.6565,20.2443,13.8855,0,0,0
-0.3469,-0.2322,0.9583,-14.626,23.145,13.8779,0,0,0
-0.3733,-0.2332,0.9194,-18.0763,25.0229,13.458,0,0,0
-0.3809,-0.2549,0.8943,-19.2061,23.5802,12.6107,0,0,0
-0.3884,-0.281,0.8936,-16.7786,21.7634,11.0763,0,0,0
-0.4016,-0.291,0.8845,-12.9847,19.771,11.1145,0,0,0
-0.3823,-0.2903,0.8906,-9.7252,18.5344,11.771,0,0,0
-0.3982,-0.2598,0.886,-8.4504,18.229,12.1069,0,0,0
-0.3899,-0.2625,0.896,-9.9008,18.6947,12.4962,0,0,0
-0.4053,-0.2644,0.8975,-11.687,19.5114,12.5496,0,0,0
-0.396,-0.2791,0.9065,-11.7634,19.7863,12.6336,0,0,0
-0.3948,-0.2727,0.9124,-11.771,20.9237,12.5344,0,0,0
-0.3936,-0.2773,0.915,-11.8855,22.9542,13.855,0,0,0
-0.4038,-0.2649,0.9121,-12.4656,25.2824,13.4351,0,0,0
-0.4216,-0.2639,0.8975,-13.3053,27.2519,11.9237,0,0,0
-0.4341,-0.2683,0.8872,-13.4275,27.1374,9.9542,0,0,0
-0.4424,-0.2866,0.8645,-12.5802,25.6031,8.6489,0,0,0
-0.4253,-0.302,0.884,-9.5573,24.1069,9.626,0,0,0
-0.4387,-0.2881,0.8904,-7.5115,24.5954,11.0382,0,0,0
-0.4336,-0.2578,0.8972,-6.9084,26.4351,11.8473,0,0,0
-0.4587,-0.2412,0.877,-9.1756,27.313,11.2366,0,0,0
-0.4639,-0.2517,0.8579,-12.1374,27.2519,9.2519,0,0,0
-0.4692,-0.2693,0.8547,-11.8626,26.5191,7.2366,0,0,0
-0.4639,-0.2983,0.8508,-9.8015,25.7252,7.1221,0,0,0
-0.4719,-0.2913,0.864,-6.5573,25.3893,7.7939,0,0,0
-0.4824,-0.2622,0.8369,-5.5802,23.1985,7.542,0,0,0
-0.5015,-0.2517,0.8188,-5.9618,21.3282,5.8244,0,0,0
-0.499,-0.2722,0.8108,-6.229,18.374,4.916,0,0,0
-0.5088,-0.2693,0.8054,-4.1527,14.4962,4.0382,0,0,0
-0.5027,-0.2773,0.8101,-2.6641,11.1145,3.8015,0,0,0
-0.5012,-0.2688,0.8152,-0.8931,9.0382,3.2748,0,0,0
-0.4917,-0.2517,0.8208,-0.4885,8.5649,2.7939,0,0,0
-0.5059,-0.2593,0.8162,-0.374,7.3206,2.2214,0,0,0
-0.489,-0.2561,0.8306,-0.7634,6.9924,0.9847,0,0,0
-0.5027,-0.2722,0.824,0.1374,6.3664,0.4122,0,0,0
-0.4988,-0.2698,0.8235,1.5344,6.0305,0.3893,0,0,0
-0.5027,-0.2578,0.8352,1.7786,5.2443,0.3511,0,0,0
-0.509,-0.261,0.8369,1.229,4.4656,-0.8321,0,0,0
-0.5093,-0.2637,0.8459,1.7863,2.313,-1.2595,0,0,0
-0.5112,-0.2571,0.8499,2.2366,0.4427,-2.4733,0,0,0
-0.5083,-0.2725,0.8354,3.5496,-1.2901,-3.2443,0,0,0
-0.5105,-0.2673,0.8442,4.6718,-2.5191,-4.2214,0,0,0
-0.4985,-0.2673,0.8435,7.4198,-3.5344,-5.6336,0,0,0
-0.4973,-0.2571,0.8503,9.2519,-3.1221,-7.0687,0,0,0
-0.4961,-0.2322,0.8564,10.6489,-2.0611,-9.7557,0,0,0
-0.4893,-0.2498,0.8574,13.0763,-1.0534,-15.229,0,0,0
-0.4888,-0.2476,0.8533,16.2748,0.9542,-18.3435,0,0,0
-0.4902,-0.2473,0.854,17.7405,1.6947,-18.1603,0,0,0
-0.4968,-0.2412,0.8555,16.9084,1.6565,-16.7863,0,0,0
-0.5032,-0.231,0.8472,14.6794,1.0076,-15.1908,0,0,0
-0.4958,-0.2297,0.842,11.1069,0.2824,-15.1832,0,0,0
-0.4885,-0.2422,0.8545,9.2595,0.1221,-14.9695,0,0,0
-0.4897,-0.2556,0.8589,7.6565,0.1298,-14.626,0,0,0
-0.4792,-0.2629,0.8682,6.916,1.2901,-14.0153,0,0,0
-0.4731,-0.2644,0.8765,5.1527,3.4122,-11.4122,0,0,0
-0.4727,-0.2708,0.8848,4.1069,5.9695,-9.5725,0,0,0
-0.4858,-0.2751,0.877,3.3206,8.6031,-9.855,0,0,0
-0.4912,-0.2683,0.876,3.2137,9.8626,-10.6947,0,0,0
-0.4985,-0.2717,0.8682,2.9542,10.3969,-11.5344,0,0,0
-0.4878,-0.2883,0.8674,3.2595,9.6794,-11.4427,0,0,0
-0.4939,-0.2917,0.864,2.7481,10.9847,-10.0916,0,0,0
-0.4844,-0.2898,0.8818,2.8397,12.0992,-8.7252,0,0,0
-0.49,-0.2795,0.8682,2.1298,15.0076,-7.6947,0,0,0
-0.5005,-0.2844,0.8662,1.145,17.2824,-6.8626,0,0,0
-0.5083,-0.2712,0.8494,0.7939,17.7176,-7.2824,0,0,0
-0.5037,-0.2544,0.8442,1.2214,18.6107,-9.9313,0,0,0
-0.4963,-0.2603,0.8523,3.6947,20.5191,-15.084,0,0,0
-0.5002,-0.2615,0.8604,8.084,23.6336,-20.5649,0,0,0
-0.4871,-0.2551,0.8711,12.8855,27.6565,-23.9695,0,0,0
-0.4846,-0.2683,0.8696,16.0382,32.374,-25.084,0,0,0
-0.5251,-0.2561,0.8535,18.8779,34.3893,-23.2443,0,0,0
-0.5105,-0.2222,0.8525,18.9771,35.2748,-23.4046,0,0,0
-0.5674,-0.2756,0.8225,17.7405,37.0,-23.2824,0,0,0
-0.5073,-0.2146,0.7959,23.1832,27.6565,-19.1908,0,0,0
-0.5356,-0.22,0.7825,24.5496,23.5954,-20.771,0,0,0
-0.5886,-0.2146,0.7661,20.6489,18.5802,-20.2901,0,0,0
-0.6021,-0.2327,0.7695,19.7099,11.8779,-21.4122,0,0,0
-0.5791,-0.2349,0.7788,21.5573,5.2977,-23.374,0,0,0
-0.5364,-0.2468,0.793,22.6565,2.0305,-24.5038,0,0,0
-0.5366,-0.2581,0.7998,22.3053,0.8702,-24.4122,0,0,0
-0.5364,-0.2532,0.8142,22.3893,0.8473,-22.2519,0,0,0
-0.5454,-0.2493,0.8157,22.0076,0.8015,-21.7252,0,0,0
-0.5425,-0.2405,0.8276,21.6336,0.3664,-23.7786,0,0,0
-0.5413,-0.2493,0.8306,22.7099,0.4275,-26.7023,0,0,0
-0.5464,-0.2686,0.8203,25.084,-0.7634,-29.771,0,0,0
-0.5476,-0.2737,0.8167,27.1527,-3.3053,-29.7481,0,0,0
-0.4912,-0.2703,0.8391,27.1527,-3.5344,-26.4733,0,0,0
-0.5227,-0.241,0.8452,21.3359,-1.7328,-19.6489,0,0,0
-0.5295,-0.2178,0.8547,14.9237,-0.2519,-16.916,0,0,0
-0.5232,-0.2092,0.8574,9.2137,1.4733,-18.4427,0,0,0
-0.5295,-0.2273,0.8394,5.7328,1.7405,-21.0534,0,0,0
-0.5317,-0.2493,0.8298,5.0992,1.0076,-21.6565,0,0,0
-0.5325,-0.2839,0.8386,5.771,-0.6947,-21.5344,0,0,0
-0.5173,-0.2854,0.8342,7.4656,-0.1145,-17.2443,0,0,0
-0.5139,-0.2827,0.8437,7.9695,1.2748,-12.855,0,0,0
-0.5186,-0.2681,0.8508,8.9389,2.0687,-10.9618,0,0,0
-0.5188,-0.2407,0.8479,10.0382,2.7939,-12.7481,0,0,0
-0.5225,-0.2366,0.8372,9.8779,3.7176,-15.313,0,0,0
-0.5361,-0.2349,0.8252,9.2366,3.0916,-16.2443,0,0,0
-0.5391,-0.2502,0.8279,7.8702,1.1298,-15.4504,0,0,0
-0.5259,-0.2454,0.8262,6.9618,-0.084,-15.0,0,0,0
-0.5215,-0.2517,0.8469,6.9618,-0.1145,-14.0458,0,0,0
-0.5149,-0.2395,0.8538,7.0,1.0229,-13.3053,0,0,0
-0.519,-0.2358,0.8538,6.6641,1.9466,-13.3969,0,0,0
-0.5308,-0.2302,0.8442,6.0534,1.855,-14.4427,0,0,0
-0.5288,-0.2339,0.832,6.0382,0.7252,-15.1679,0,0,0
-0.5322,-0.2415,0.8347,6.6718,-0.8473,-16.5344,0,0,0
-0.5303,-0.2417,0.824,7.3664,-2.2443,-16.4656,0,0,0
-0.5193,-0.2588,0.8352,6.9924,-4.145,-15.7786,0,0,0
-0.5151,-0.2507,0.8286,5.7099,-4.1985,-12.6718,0,0,0
-0.5181,-0.2505,0.8345,3.5878,-4.2519,-10.1679,0,0,0
-0.5186,-0.2551,0.8364,2.6565,-4.4656,-9.1756,0,0,0
-0.5178,-0.2483,0.8245,3.4046,-4.9847,-9.4885,0,0,0
-0.5164,-0.2458,0.8323,4.4809,-5.6412,-10.9008,0,0,0
-0.51,-0.2583,0.8362,5.626,-6.5649,-11.0763,0,0,0
-0.5073,-0.2603,0.8433,4.9542,-6.2137,-8.8397,0,0,0
-0.5132,-0.2563,0.8511,3.8244,-6.2977,-6.2824,0,0,0
-0.5144,-0.2405,0.8506,3.1298,-6.8931,-6.8321,0,0,0
-0.5105,-0.2429,0.8508,3.1221,-7.5038,-8.1985,0,0,0
-0.5034,-0.2405,0.8574,1.3664,-7.6031,-9.0305,0,0,0
-0.4915,-0.2637,0.8665,0.9313,-6.4046,-6.458,0,0,0
-0.499,-0.2568,0.8606,1.4046,-4.9237,-4.7252,0,0,0
-0.4932,-0.2566,0.8594,1.9466,-3.9313,-3.9389,0,0,0
-0.4985,-0.2456,0.8484,1.5878,-3.3359,-3.6107,0,0,0
-0.5046,-0.2449,0.8445,0.5191,-3.1298,-2.3893,0,0,0
-0.5115,-0.2454,0.8413,-0.8855,-3.2824,-1.6641,0,0,0
-0.5063,-0.2529,0.8535,-1.2977,-3.6565,-1.2901,0,0,0
-0.4966,-0.2551,0.845,-0.0687,-3.6107,-1.1221,0,0,0
-0.4966,-0.2488,0.8528,0.5115,-2.9924,-0.9847,0,0,0
-0.4958,-0.2424,0.8584,1.2977,-2.2214,-2.3435,0,0,0
-0.4995,-0.2393,0.8625,1.5267,-1.9237,-3.1145,0,0,0
-0.5042,-0.2312,0.8582,-0.0916,-1.2748,-2.7023,0,0,0
-0.5017,-0.241,0.8555,-1.6641,-1.084,-1.6031,0,0,0
-0.5022,-0.2463,0.8574,-2.2672,-1.4809,-0.7405,0,0,0
-0.498,-0.2429,0.8516,-2.9466,-1.687,-0.0076,0,0,0
-0.4985,-0.2407,0.8464,-3.7099,-2.3817,0.6107,0,0,0
-0.5027,-0.2466,0.8445,-4.6107,-3.2443,1.3053,0,0,0
-0.4983,-0.2664,0.8557,-3.7786,-3.145,1.9695,0,0,0
-0.4954,-0.2632,0.8623,-2.313,-2.9924,2.7939,0,0,0
-0.4902,-0.2515,0.8555,-1.5573,-2.3435,3.4427,0,0,0
-0.4963,-0.2295,0.8611,-2.1832,-1.8779,3.5115,0,0,0
-0.4937,-0.2327,0.8706,-2.5573,-1.6031,0.8092,0,0,0
-0.4868,-0.231,0.8765,-2.9542,-0.6718,-0.5267,0,0,0
-0.4907,-0.2358,0.8835,-2.9924,0.9237,-0.7786,0,0,0
-0.4956,-0.2502,0.8899,-2.5725,2.1527,-0.2595,0,0,0
-0.4958,-0.2415,0.8779,-1.8015,3.6489,0.4733,0,0,0
-0.4968,-0.2332,0.8713,-1.3282,4.3435,-0.1145,0,0,0
-0.5007,-0.229,0.8584,-1.9695,4.1679,-0.8092,0,0,0
-0.499,-0.2278,0.8594,-3.4656,4.4427,-0.916,0,0,0
-0.4973,-0.2368,0.8684,-4.6565,5.2595,-0.9695,0,0,0
-0.4788,-0.2495,0.8867,-5.3664,8.2824,0.1756,0,0,0
-0.4771,-0.2478,0.8799,-5.5344,12.2366,1.0076,0,0,0
-0.5034,-0.2458,0.8743,-4.9618,13.9847,0.9542,0,0,0
-0.5139,-0.2415,0.853,-4.7634,13.7557,-0.3817,0,0,0
-0.5215,-0.2378,0.8411,-4.7634,12.2061,-1.6412,0,0,0
-0.5259,-0.2451,0.8345,-4.4122,9.1832,-1.8855,0,0,0
-0.5227,-0.2524,0.8237,-3.1298,6.5344,-3.4809,0,0,0
-0.5271,-0.2439,0.8154,-1.229,3.7634,-5.1145,0,0,0
-0.5234,-0.2473,0.8005,0.8015,1.4351,-6.5573,0,0,0
-0.5278,-0.2522,0.804,2.1756,-1.0229,-6.771,0,0,0
-0.5151,-0.2559,0.8264,2.5878,-1.8855,-5.1221,0,0,0
-0.5149,-0.2473,0.8267,1.7252,-1.5954,-2.4733,0,0,0
-0.5261,-0.2361,0.8271,0.9924,-1.7634,-1.2977,0,0,0
-0.5195,-0.2295,0.8296,-1.2366,-3.1527,-1.0534,0,0,0
-0.5229,-0.2402,0.833,-2.8855,-4.8779,-0.7023,0,0,0
-0.5168,-0.2566,0.8486,-2.3282,-5.4809,-0.4122,0,0,0
-0.4929,-0.2683,0.8589,-1.4427,-4.3053,0.7405,0,0,0
-0.5012,-0.2627,0.8735,-0.2443,-2.313,1.4351,0,0,0
-0.5066,-0.2495,0.8579,-0.313,-0.5878,1.5802,0,0,0
-0.5142,-0.2373,0.8555,-1.6183,-0.6031,1.5496,0,0,0
-0.5129,-0.2405,0.8501,-2.6183,-1.5954,0.8397,0,0,0
-0.5142,-0.2397,0.8501,-2.9542,-2.0305,0.1527,0,0,0
-0.5085,-0.2451,0.8452,-2.5038,-2.5725,-0.5267,0,0,0
-0.5073,-0.2424,0.8469,-1.1908,-2.4275,-0.9084,0,0,0
-0.509,-0.2466,0.853,-0.1069,-2.2748,-1.8931,0,0,0
-0.5029,-0.2312,0.8459,0.1374,-1.4198,-1.916,0,0,0
-0.5093,-0.2268,0.8484,-1.1908,-0.8473,-1.4809,0,0,0
-0.5144,-0.229,0.844,-2.5878,-1.3053,-1.6718,0,0,0
-0.5225,-0.2258,0.8369,-4.542,-2.1374,-1.4809,0,0,0
-0.5173,-0.2383,0.8413,-5.8779,-3.4504,-1.3053,0,0,0
-0.5073,-0.2524,0.8435,-4.6183,-4.1145,-0.9084,0,0,0
-0.5066,-0.2566,0.8457,-2.3511,-4.7023,-1.2977,0,0,0
-0.5054,-0.252,0.8472,-0.5115,-5.0,-1.5191,0,0,0
-0.5002,-0.2542,0.8447,0.3359,-3.9847,-0.5191,0,0,0
-0.4988,-0.2375,0.8538,0.4427,-3.0458,-0.5878,0,0,0
-0.5029,-0.2393,0.8584,-0.5191,-2.7863,-1.8015,0,0,0
-0.5032,-0.24,0.8535,-0.9924,-2.8092,-2.7023,0,0,0
-0.5071,-0.2573,0.8577,-0.6412,-3.1221,-3.1985,0,0,0
-0.4995,-0.2527,0.8652,-0.0076,-3.4809,-2.6947,0,0,0
-0.4958,-0.25,0.8677,-0.7481,-2.4046,-1.2824,0,0,0
-0.4983,-0.252,0.8777,-1.2366,-1.8855,-0.5496,0,0,0
-0.5015,-0.2432,0.8699,-2.8168,-0.8244,-0.7252,0,0,0
-0.5022,-0.2549,0.8669,-2.9389,-0.687,-0.8702,0,0,0
-0.4998,-0.2493,0.8591,-2.5038,-0.5267,-0.7099,0,0,0
-0.5024,-0.2485,0.8508,-1.5267,-1.0382,-0.5267,0,0,0
-0.5007,-0.2507,0.8442,-1.2595,-0.9389,0.3053,0,0,0
-0.5012,-0.2434,0.8494,-1.4656,-0.8092,0.374,0,0,0
-0.5042,-0.2302,0.8425,-1.8626,-1.2519,-0.2824,0,0,0
-0.5056,-0.2292,0.8357,-2.0992,-1.1832,-1.3817,0,0,0
-0.5056,-0.2395,0.835,-2.1756,-1.7634,-2.084,0,0,0
-0.5044,-0.2502,0.8513,-0.9008,-2.1145,-2.8931,0,0,0
-0.5056,-0.2471,0.8562,1.6565,-1.9695,-4.4427,0,0,0
-0.5022,-0.2388,0.8574,3.2366,-2.2824,-5.6794,0,0,0
-0.4985,-0.2395,0.8721,3.5115,-2.313,-5.0,0,0,0
-0.5039,-0.23,0.8696,1.4275,-2.3053,-3.4275,0,0,0
-0.501,-0.23,0.8669,-0.9924,-2.3282,-2.8092,0,0,0
-0.4985,-0.2329,0.8691,-2.8244,-2.1832,-2.3053,0,0,0
-0.4946,-0.2468,0.8628,-3.7481,-1.542,-2.7099,0,0,0
-0.4963,-0.2502,0.8633,-3.2366,-1.313,-2.5344,0,0,0
-0.4932,-0.2678,0.8611,-3.1298,-1.1832,-1.313,0,0,0
-0.498,-0.2725,0.8618,-1.7176,-1.4427,-0.1145,0,0,0
-0.4968,-0.2534,0.8525,-1.4962,-1.2137,0.6947,0,0,0
-0.4934,-0.2507,0.8477,-0.6565,-0.7863,-0.916,0,0,0
-0.4924,-0.2466,0.8479,-0.2977,-0.2748,-2.1145,0,0,0
-0.5012,-0.2549,0.845,0.1527,-0.3817,-2.7023,0,0,0
-0.5029,-0.2546,0.8345,0.6412,-1.6412,-2.1756,0,0,0
-0.4993,-0.2522,0.8464,0.2977,-2.5649,-1.2901,0,0,0
-0.4963,-0.2451,0.8569,-0.9771,-2.9237,-0.1679,0,0,0
-0.4968,-0.2385,0.8596,-2.9389,-2.9542,0.9695,0,0,0
-0.4978,-0.2341,0.8665,-5.1985,-3.0916,1.0534,0,0,0
-0.4924,-0.2473,0.8721,-5.7786,-3.084,0.7252,0,0,0
-0.4858,-0.26,0.8735,-4.0611,-2.0611,0.6107,0,0,0
-0.4895,-0.2651,0.8745,-0.8931,-1.0305,0.8473,0,0,0
-0.4941,-0.2524,0.8623,1.1985,0.0305,1.2672,0,0,0
-0.5002,-0.2444,0.8528,1.6336,-0.0763,1.3588,0,0,0
-0.5085,-0.2258,0.8462,0.0534,-1.1679,1.4809,0,0,0
-0.4963,-0.2212,0.8491,-2.5954,-1.8321,0.8244,0,0,0
-0.4946,-0.2419,0.8467,-3.6107,-2.916,0.374,0,0,0
-0.4968,-0.248,0.8577,-3.0229,-3.2824,0.5267,0,0,0
-0.491,-0.2651,0.8582,-1.2977,-2.8015,0.5115,0,0,0
-0.4895,-0.262,0.866,0.9313,-2.2137,0.7481,0,0,0
-0.4897,-0.2485,0.8599,2.2443,-1.3664,0.542,0,0,0
-0.4907,-0.2515,0.8672,3.0534,-0.6947,0.9924,0,0,0
-0.498,-0.2263,0.8574,2.7176,-1.0916,1.2595,0,0,0
-0.49,-0.2317,0.8679,0.7176,-1.6489,1.6489,0,0,0
-0.4971,-0.2371,0.8611,-0.1145,-1.0153,1.0534,0,0,0
-0.498,-0.238,0.8618,-1.313,-0.5038,0.458,0,0,0
-0.4922,-0.2212,0.8701,-3.6336,-0.5954,-0.4656,1,0,0
-0.4907,-0.24,0.8608,-3.5115,-0.2519,-0.7634,1,0,0
-0.4946,-0.2444,0.8589,-2.9084,-0.1603,-0.8855,1,0,0
-0.4976,-0.2405,0.8555,-1.9313,-0.229,-0.8168,1,0,0
-0.4958,-0.2417,0.8677,-1.542,0.1069,-0.8779,1,0,0
-0.4944,-0.2432,0.8533,-1.5115,0.2977,0.2519,1,0,0
-0.4917,-0.2305,0.8545,-1.4656,0.5115,0.0534,1,0,0
-0.4937,-0.2334,0.8591,-1.5649,-0.5649,-0.2824,1,0,0
-0.4958,-0.2329,0.8555,-2.4046,-1.0229,-0.9237,1,0,0
-0.4998,-0.2522,0.856,-0.8397,-0.8321,-0.626,1,0,0
-0.4934,-0.2534,0.8599,0.7405,-0.6183,-0.5802,1,0,0
-0.4998,-0.2358,0.8481,0.687,-0.8473,-0.6031,1,0,0
-0.4978,-0.2253,0.8494,-0.458,-1.8855,-0.4885,1,0,0
-0.4944,-0.2253,0.8594,-2.2748,-2.6489,-0.4809,1,0,0
-0.491,-0.2288,0.8611,-3.9084,-2.6489,-1.0534,1,0,0
-0.4868,-0.2344,0.8804,-5.145,-2.4275,-0.8015,1,0,0
-0.4885,-0.2256,0.8848,-6.1298,-1.0,-1.1298,1,0,0
-0.4873,-0.2346,0.8745,-6.5954,0.542,-2.0,1,0,0
-0.489,-0.2314,0.8743,-6.2977,1.3893,-2.7481,1,0,0
-0.4927,-0.2336,0.8604,-6.4656,2.8015,-4.9618,1,0,0
-0.4912,-0.2729,0.845,-5.4427,1.6947,-2.2672,1,0,0
-0.4956,-0.2563,0.8547,-3.6412,1.229,-1.6641,1,0,0
-0.4985,-0.251,0.8518,-2.313,0.9237,-2.687,1,0,0
-0.4988,-0.2466,0.8442,-2.5115,0.4198,-2.2366,1,0,0
-0.4954,-0.2544,0.8538,-3.1679,0.6107,-0.9084,1,0,0
-0.4939,-0.2583,0.8491,-3.084,0.6183,-0.4427,1,0,0
-0.5017,-0.238,0.842,-2.7405,-0.4733,-0.5954,1,0,0
-0.5002,-0.2395,0.8386,-3.6412,-1.4275,-1.145,1,0,0
-0.4915,-0.2573,0.8489,-2.9847,-2.0229,-0.9084,1,0,0
-0.4895,-0.2551,0.8479,-1.5802,-1.7481,-0.7023,1,0,0
-0.4958,-0.2483,0.8516,-1.3511,-1.4122,-0.7939,1,0,0
-0.4905,-0.2527,0.8621,-0.8321,-0.9618,0.0687,1,0,0
-0.4973,-0.2527,0.8586,-0.7405,-1.2443,-0.0305,1,0,0
-0.4971,-0.2444,0.8596,-1.5725,-1.5954,0.2061,1,0,0
-0.4949,-0.241,0.8621,-1.8626,-1.542,0.0,1,0,0
-0.4871,-0.2434,0.8625,-2.5038,-0.916,-0.1985,1,0,0
-0.4915,-0.2717,0.866,-0.2519,-0.6031,0.9466,1,0,0
-0.4963,-0.2612,0.8582,3.0687,-0.8168,1.0458,1,0,0
-0.4951,-0.2488,0.8613,4.9771,-1.0687,0.6489,1,0,0
-0.5007,-0.2676,0.8523,7.4046,-1.542,1.6336,1,0,0
-0.5093,-0.2607,0.8391,10.8855,-3.2443,4.0687,1,0,0
-0.4998,-0.2183,0.8105,7.6947,-7.0229,5.8397,1,0,0
-0.4858,-0.3105,0.8464,8.8855,-8.6183,-3.4656,1,0,0
-0.5137,-0.1873,0.8772,7.4427,-4.6412,1.6107,1,0,0
-0.4785,-0.2251,0.854,4.687,-7.7252,-0.7557,1,0,0
-0.4636,-0.2275,0.8843,1.9771,-4.6947,0.5115,1,0,0
-0.4902,-0.2283,0.8767,0.7023,-3.5573,-2.3359,1,0,0
-0.488,-0.2268,0.885,-0.229,-3.7786,-1.2443,1,0,0
-0.4817,-0.1975,0.8801,-3.6183,-4.3435,-1.0534,1,0,0
-0.4731,-0.2029,0.8938,-8.4427,-2.855,-2.0076,1,0,0
-0.4766,-0.2214,0.8904,-11.916,-1.374,-2.8244,1,0,0
-0.4785,-0.2312,0.8989,-12.5954,0.4198,-3.542,1,0,0
-0.4778,-0.2412,0.887,-13.0382,2.0763,-4.313,1,0,0
-0.4873,-0.2603,0.8899,-10.8321,3.3206,-4.8779,1,0,0
-0.4839,-0.2446,0.8887,-7.0534,6.2901,-6.8397,1,0,0
-0.4941,-0.2595,0.8555,-2.0763,5.3282,-7.2977,1,0,0
-0.4868,-0.2515,0.8394,1.2366,3.542,-4.3282,1,0,0
-0.5076,-0.2053,0.8496,-1.6947,2.1527,-4.7786,1,0,0
-0.5027,-0.2261,0.8369,-4.5954,0.7634,-2.3282,1,0,0
-0.4851,-0.2375,0.8345,-6.5038,0.5954,-1.7405,1,0,0
-0.4858,-0.2495,0.8376,-6.0305,0.2443,-1.5802,1,0,0
-0.5017,-0.2524,0.8369,-4.7405,-0.771,-1.6565,1,0,0
-0.4939,-0.2517,0.8445,-3.8931,-2.0382,-0.687,1,0,0
-0.4927,-0.2671,0.8518,-1.4198,-3.0076,0.1756,1,0,0
-0.4846,-0.2617,0.8655,0.6336,-2.9237,-0.2061,1,0,0
-0.481,-0.2576,0.8708,2.1985,-1.8626,0.0763,1,0,0
-0.4836,-0.25,0.863,2.9313,-1.229,-0.6947,1,0,0
-0.4888,-0.2385,0.8628,2.3969,-1.0611,-0.8702,1,0,0
-0.4907,-0.2368,0.8674,0.5573,-1.2366,-0.8702,1,0,0
-0.4897,-0.2354,0.8699,-1.5725,-2.2519,-0.3969,1,0,0
-0.4873,-0.2383,0.8757,-3.4885,-2.5191,-0.3359,1,0,0
-0.4819,-0.2432,0.875,-4.6794,-2.1069,-0.4198,1,0,0
-0.4797,-0.2595,0.8794,-4.1908,-0.7786,-0.8855,1,0,0
-0.4827,-0.2566,0.8889,-2.8473,0.3664,-0.8168,1,0,0
-0.4863,-0.2522,0.8694,-2.916,1.229,-0.5344,1,0,0
-0.4829,-0.2583,0.8728,-2.0153,1.7099,0.0,1,0,0
-0.4915,-0.249,0.8577,-0.6641,1.7405,-0.2901,1,0,0
-0.4875,-0.2498,0.8494,0.0534,0.9847,-0.5573,1,0,0
-0.4939,-0.2292,0.8516,-0.2366,0.2443,-0.9389,1,0,0
-0.4937,-0.2329,0.8604,-1.9313,-0.7405,-0.8779,1,0,0
-0.4844,-0.2471,0.8669,-3.2137,-0.313,0.0382,1,0,0
-0.4832,-0.2498,0.8647,-2.6107,0.8931,0.3435,1,0,0
-0.4836,-0.2603,0.8625,-0.7176,1.6107,-0.0458,1,0,0
-0.4902,-0.2686,0.8608,3.3206,1.6031,-0.2061,1,0,0
-0.5005,-0.2612,0.8579,6.2977,-0.2366,1.0916,1,0,0
-0.5088,-0.2605,0.8486,8.6489,-2.4427,3.3206,1,0,0
-0.4937,-0.2388,0.8328,8.771,-5.6183,6.084,1,0,0
-0.4468,-0.3259,0.8264,11.6565,-8.3206,1.0763,1,0,0
-0.5247,-0.1853,0.8601,10.4885,-4.4656,3.7939,1,0,0
-0.4868,-0.208,0.8577,5.6336,-8.0229,1.2366,1,0,0
-0.4717,-0.2053,0.8765,1.6412,-5.8244,2.0153,1,0,0
-0.4775,-0.2029,0.8833,-2.7939,-4.1603,-1.0611,1,0,0
-0.481,-0.2231,0.8909,-5.0916,-3.3359,-1.4427,1,0,0
-0.4749,-0.2134,0.8938,-6.9313,-2.9771,-1.4733,1,0,0
-0.4697,-0.2173,0.9036,-9.5038,-0.8397,-1.626,1,0,0
-0.4729,-0.2385,0.9036,-10.6489,1.3206,-2.2748,1,0,0
-0.4763,-0.239,0.8943,-9.4427,2.8397,-2.8244,1,0,0
-0.4856,-0.2432,0.884,-7.916,3.5802,-3.3511,1,0,0
-0.4854,-0.25,0.8718,-6.0458,3.8931,-4.3664,1,0,0
-0.4805,-0.2246,0.874,-4.9924,6.0916,-7.0229,1,0,0
-0.4788,-0.2688,0.8372,-1.3893,4.6183,-5.5115,1,0,0
-0.4946,-0.2092,0.8479,-2.5725,4.0153,-5.5649,1,0,0
-0.4973,-0.2271,0.8428,-5.0153,2.2824,-4.542,1,0,0
-0.4897,-0.2407,0.8357,-7.3969,0.3511,-2.2137,1,0,0
-0.4875,-0.2598,0.8398,-7.9847,-0.3588,-1.3588,1,0,0
-0.4817,-0.2749,0.8533,-4.3053,0.1221,-0.3435,1,0,0
-0.4917,-0.2593,0.8447,-0.855,-0.7176,-0.8168,1,0,0
-0.4812,-0.259,0.8557,1.2595,-1.6107,-0.4275,1,0,0
-0.4834,-0.2388,0.8645,2.1374,-1.0229,-0.0534,1,0,0
-0.489,-0.2275,0.8589,0.2748,-1.2901,-0.2824,1,0,0
-0.4773,-0.229,0.8662,-2.2901,-0.9008,-0.6107,1,0,0
-0.4871,-0.2407,0.873,-4.0076,-0.8473,-0.9695,1,0,0
-0.4824,-0.2515,0.8721,-4.3282,-0.6183,-0.855,1,0,0
-0.4897,-0.2559,0.8752,-3.3588,-0.2748,-0.8855,1,0,0
-0.4819,-0.2668,0.8855,-1.6336,0.5115,-0.771,1,0,0
-0.4822,-0.2566,0.8804,0.6412,1.2061,-0.9084,1,0,0
-0.4829,-0.2456,0.8667,1.2977,1.7481,-0.6107,1,0,0
-0.4893,-0.2251,0.8611,0.1221,1.9618,-0.7176,1,0,0
-0.4871,-0.2244,0.8545,-1.6031,1.5649,-0.9771,1,0,0
-0.4858,-0.2351,0.8564,-3.3817,1.5725,-1.3969,1,0,0
-0.488,-0.238,0.863,-3.0076,2.0458,-1.3359,1,0,0
-0.4822,-0.238,0.8679,-3.1374,2.4122,-1.0916,1,0,0
-0.4839,-0.2361,0.8738,-4.5267,3.2214,-1.3588,1,0,0
-0.4883,-0.2505,0.8743,-4.7328,3.9542,-1.2443,1,0,0
-0.49,-0.2495,0.8738,-4.9008,5.1145,-1.4504,1,0,0
-0.4841,-0.2576,0.8738,-3.8779,5.8244,-1.6947,1,0,0
-0.4885,-0.2593,0.8696,-2.8092,6.374,-0.9389,1,0,0
-0.4919,-0.2495,0.8618,-2.5344,6.1679,0.4198,1,0,0
-0.4927,-0.2439,0.8518,-3.3435,6.8015,1.5191,1,0,0
-0.4966,-0.2378,0.8582,-4.8473,6.5267,1.6489,1,0,0
-0.5059,-0.2261,0.8472,-7.7023,5.4198,0.8473,1,0,0
-0.5005,-0.2434,0.8457,-8.458,4.1908,0.5344,1,0,0
-0.4978,-0.2642,0.8416,-7.3588,3.2214,-0.0382,1,0,0
-0.4949,-0.2656,0.8562,-4.7405,3.2519,-0.1069,1,0,0
-0.4941,-0.2783,0.845,-1.1298,4.3053,0.0992,1,0,0
-0.5002,-0.2654,0.8491,2.1527,4.2366,0.3817,1,0,0
-0.5034,-0.2458,0.8337,3.7023,3.5954,0.0382,1,0,0
-0.5085,-0.231,0.8357,3.4733,2.0763,-0.4198,1,0,0
-0.5139,-0.2258,0.8281,1.687,0.1679,-0.8092,1,0,0
-0.5024,-0.217,0.8506,-1.6412,-0.5344,-1.4809,1,0,0
-0.5,-0.2292,0.8523,-5.0687,0.5496,-2.0687,1,0,0
-0.4976,-0.2454,0.854,-5.7405,1.3817,-1.8092,1,0,0
-0.5017,-0.2703,0.8567,-3.855,1.3588,-1.2824,1,0,0
-0.5049,-0.2776,0.8643,0.4046,1.084,-1.313,1,0,0
-0.5132,-0.2856,0.8423,5.458,-0.5038,-1.0382,1,0,0
-0.5159,-0.2542,0.845,8.2595,-1.6489,0.6183,1,0,0
-0.5117,-0.2295,0.8362,7.9466,-3.4504,0.6565,1,0,0
-0.5127,-0.2214,0.8467,5.5725,-4.2901,0.6947,1,0,0
-0.5029,-0.2292,0.8538,2.9847,-4.1832,0.3282,1,0,0
-0.4978,-0.2271,0.854,0.8702,-3.6107,0.0076,1,0,0
-0.4871,-0.2251,0.8701,-1.0229,-2.6031,-0.6565,1,0,0
-0.4709,-0.2659,0.8655,0.6412,-1.4809,-3.3893,1,0,0
-0.5015,-0.2456,0.8723,3.4046,0.0916,-0.8321,1,0,0
-0.5063,-0.2375,0.8511,2.9084,-1.9847,-1.4885,1,0,0
-0.4988,-0.2271,0.8638,1.5038,-2.0229,-0.1985,1,0,0
-0.4946,-0.2195,0.866,-1.5115,-2.5496,-1.1985,1,0,0
-0.4893,-0.2173,0.8696,-4.5038,-1.8855,-1.6641,1,0,0
-0.4873,-0.2092,0.8694,-8.9313,-0.2366,-2.2214,1,0,0
-0.4939,-0.2241,0.8809,-12.6718,1.3359,-3.0687,1,0,0
-0.4934,-0.2585,0.8765,-13.2061,2.687,-4.0305,1,0,0
-0.4998,-0.2615,0.8684,-10.4427,3.5115,-5.7023,1,0,0
-0.4968,-0.2813,0.8638,-7.6565,3.0153,-4.2443,1,0,0
-0.52,-0.2654,0.8484,-3.7786,3.4198,-2.4351,1,0,0
-0.5088,-0.2385,0.8513,-3.0076,2.2595,-3.8015,1,0,0
-0.5061,-0.2278,0.8381,-4.5267,1.5115,-4.5649,1,0,0
-0.4983,-0.2395,0.8386,-6.229,0.9847,-3.9237,1,0,0
-0.501,-0.2402,0.8406,-7.542,0.8397,-3.8015,1,0,0
-0.5042,-0.2371,0.8345,-8.855,0.4275,-3.9389,1,0,0
-0.5088,-0.2368,0.8381,-10.7634,-0.2824,-4.0229,1,0,0
-0.5022,-0.2363,0.845,-11.8244,-1.3282,-4.0534,1,0,0
-0.5039,-0.2244,0.8464,-13.3053,-2.1145,-4.313,1,0,0
-0.5032,-0.2053,0.8535,-16.8626,-2.3511,-5.6336,1,0,0
-0.5029,-0.186,0.8655,-22.0229,-1.8473,-6.1679,1,0,0
-0.5112,-0.1453,0.8684,-30.5191,-0.9924,-8.0534,1,0,0
-0.52,-0.1238,0.8716,-42.6794,-1.1374,-12.3969,1,0,0
-0.5154,-0.1438,0.8613,-55.9618,-3.1221,-16.0229,1,0,0
-0.5027,-0.2187,0.8792,-63.2061,-3.9237,-17.3282,1,0,0
-0.4871,-0.2974,0.8809,-62.6031,-3.8779,-17.7099,1,0,0
-0.4663,-0.4082,0.8855,-51.2824,-1.458,-15.9542,1,0,0
-0.4719,-0.4338,0.8723,-34.2748,1.8702,-14.1298,1,0,0
-0.47,-0.4358,0.8486,-16.8855,4.9771,-11.8321,1,0,0
-0.4822,-0.3884,0.8103,-4.8397,7.4351,-10.4809,1,0,0
-0.4897,-0.3452,0.772,-0.229,8.0153,-10.5496,1,0,0
-0.5005,-0.3235,0.7554,-1.458,7.6183,-10.6641,1,0,0
-0.509,-0.3057,0.7375,-6.4122,5.2901,-10.7023,1,0,0
-0.5127,-0.313,0.7354,-13.5191,1.1756,-10.3511,1,0,0
-0.5195,-0.323,0.7373,-21.5496,-4.374,-9.1221,1,0,0
-0.5215,-0.3435,0.7576,-28.1832,-10.7481,-7.9542,1,0,0
-0.5073,-0.3611,0.791,-32.6565,-15.2061,-6.7252,1,0,0
-0.4817,-0.3845,0.8257,-34.8855,-17.374,-6.4656,1,0,0
-0.4521,-0.4355,0.8625,-32.2977,-15.6718,-4.4885,1,0,0
-0.4451,-0.4463,0.8796,-26.4733,-11.3053,-2.9847,1,0,0
-0.4375,-0.4729,0.8943,-17.9618,-6.0687,-2.4656,1,0,0
-0.4517,-0.4548,0.8865,-8.2366,-1.4046,-1.3969,0,0,0
-0.4612,-0.4331,0.8669,-2.2824,1.0305,-0.3206,0,0,0
-0.4705,-0.3896,0.8523,0.4733,2.8244,0.2977,0,0,0
-0.4702,-0.3672,0.835,-0.6183,4.0458,-0.0611,0,0,0
-0.4783,-0.3372,0.825,-3.9924,4.458,-0.145,0,0,0
-0.489,-0.3252,0.8064,-9.9695,4.4046,-0.9237,0,0,0
-0.4929,-0.3328,0.7993,-15.5191,3.3588,-1.7023,0,0,0
-0.4976,-0.3401,0.7864,-19.771,0.9771,-1.626,0,0,0
-0.4922,-0.3711,0.7881,-21.7099,-1.3664,-1.5267,0,0,0
-0.4841,-0.3889,0.7996,-20.8779,-2.4656,-1.2748,0,0,0
-0.4775,-0.3967,0.8022,-18.2672,-2.0687,-0.2061,0,0,0
-0.4836,-0.3989,0.802,-15.4122,-1.8702,0.2824,0,0,0
-0.4812,-0.3938,0.791,-12.229,-1.7634,0.0,0,0,0
-0.4751,-0.3914,0.7988,-9.4427,-1.8779,-0.3817,0,0,0
-0.4841,-0.3792,0.7976,-7.9466,-1.4122,-0.8702,0,0,0
-0.4844,-0.3816,0.802,-6.3206,-1.626,-1.0153,0,0,0
-0.4841,-0.3823,0.8081,-5.3893,-2.3359,-0.626,0,0,0
-0.4866,-0.3765,0.8088,-5.5115,-2.6565,-0.4427,0,0,0
-0.4861,-0.373,0.8169,-6.3817,-3.4504,-0.9771,0,0,0
-0.4775,-0.3831,0.8298,-7.0992,-3.0611,-1.2672,0,0,0
-0.4827,-0.394,0.8359,-7.1145,-2.9695,-0.3817,0,0,0
-0.478,-0.3882,0.8328,-6.6183,-2.8092,-0.0458,0,0,0
-0.4792,-0.3923,0.8379,-7.2519,-2.542,-0.2748,0,0,0
-0.4778,-0.3955,0.8318,-7.687,-1.7328,1.1756,0,0,0
-0.4822,-0.4092,0.8105,-7.7863,-2.1603,2.9924,0,0,0
-0.4834,-0.416,0.7937,-7.8855,-3.2214,5.2901,0,0,0
-0.4814,-0.4116,0.7896,-8.6183,-3.855,8.6107,0,0,0
-0.48,-0.4048,0.7844,-10.2214,-4.0382,10.1221,0,0,0
-0.4773,-0.4106,0.7825,-12.1374,-5.2214,12.5191,0,0,0
-0.4797,-0.4077,0.7864,-12.9771,-5.6718,14.6107,0,0,0
-0.4783,-0.4197,0.7844,-14.1298,-6.3511,17.1527,0,0,0
-0.4861,-0.4026,0.7939,-14.6947,-6.6794,18.7557,0,0,0
-0.4976,-0.3755,0.7896,-12.2061,-14.7023,20.7252,0,0,0
-0.429,-0.384,0.8179,-12.4733,-10.1069,16.1298,0,0,0
-0.4592,-0.3831,0.811,-13.5496,-7.9618,14.3588,0,0,0
-0.4998,-0.395,0.8206,-14.5496,-6.229,14.0534,0,0,0
-0.481,-0.3904,0.8196,-14.1832,-5.9847,13.3435,0,0,0
-0.4651,-0.3943,0.8274,-13.8626,-4.9847,12.0687,0,0,0
-0.4668,-0.4009,0.8335,-13.0382,-3.9542,11.9466,0,0,0
-0.5015,-0.4043,0.8276,-11.1221,-4.6641,10.5802,0,0,0
-0.459,-0.3752,0.834,-9.5954,-2.1069,6.8244,0,0,0
-0.4639,-0.3704,0.8386,-10.5649,1.0992,3.8855,0,0,0
-0.4814,-0.3889,0.8308,-11.2366,3.8092,3.3664,0,0,0
-0.4763,-0.4106,0.8262,-10.6565,5.6412,3.374,0,0,0
-0.4734,-0.4111,0.8057,-9.6794,6.8855,4.5115,0,0,0
-0.4817,-0.4165,0.7981,-8.7099,7.1145,6.687,0,0,0
-0.4919,-0.3987,0.7893,-8.1832,6.9313,8.0305,0,0,0
-0.5032,-0.3992,0.7834,-9.0916,6.0763,8.3588,0,0,0
-0.4995,-0.4087,0.7771,-9.5649,4.4198,8.4504,0,0,0
-0.4946,-0.4199,0.7751,-10.1832,4.0076,9.5344,0,0,0
-0.4971,-0.4326,0.7803,-11.0916,3.1298,12.4504,0,0,0
-0.4941,-0.4341,0.7825,-8.9542,2.6183,14.6107,0,0,0
-0.4971,-0.4229,0.7766,-7.084,1.8321,14.1985,0,0,0
-0.4893,-0.4177,0.7898,-6.3053,2.1527,14.0153,0,0,0
-0.5022,-0.4045,0.7954,-5.3817,2.6718,13.5344,0,0,0
-0.5061,-0.4058,0.801,-4.6183,1.7786,12.2748,0,0,0
-0.5054,-0.4014,0.7852,-4.2901,1.0458,12.1298,0,0,0
-0.5042,-0.4033,0.7854,-4.3664,0.916,12.7252,0,0,0
-0.5056,-0.3997,0.7842,-5.1145,0.8473,14.2748,0,0,0
-0.5095,-0.395,0.7773,-5.3359,0.3206,14.9237,0,0,0
-0.5156,-0.3721,0.7771,-5.8702,-0.0611,13.1145,0,0,0
-0.5105,-0.3647,0.7859,-5.7099,-0.2672,8.5878,0,0,0
-0.5085,-0.3738,0.7759,-5.6641,-0.1069,4.8473,0,0,0
-0.5186,-0.3723,0.7681,-5.1374,-0.2061,2.2519,0,0,0
-0.5144,-0.3953,0.7729,-3.4962,-0.6794,1.3893,0,0,0
-0.5134,-0.4038,0.7744,-2.0611,-1.0534,2.2824,0,0,0
-0.5188,-0.3987,0.78,0.2137,-1.7786,3.4427,0,0,0
-0.5183,-0.3784,0.7751,0.7176,-2.855,2.9847,0,0,0
-0.5068,-0.3777,0.79,0.4809,-3.0916,1.7786,0,0,0
-0.5056,-0.3877,0.7981,0.2366,-2.4198,1.0611,0,0,0
-0.5117,-0.3801,0.7986,-0.1069,-1.7099,1.4656,0,0,0
-0.5093,-0.3818,0.7966,-1.0076,-1.4351,1.0305,0,0,0
-0.5049,-0.387,0.7979,-1.6641,-0.9466,1.1832,0,0,0
-0.5117,-0.3767,0.791,-2.6947,-0.6641,0.4275,0,0,0
-0.5088,-0.3789,0.7952,-3.8779,-0.4198,0.1298,0,0,0
-0.5149,-0.3826,0.7786,-4.0076,-0.7634,-0.229,0,0,0
-0.5164,-0.386,0.7805,-3.771,-1.1298,-0.9542,0,0,0
-0.5134,-0.4028,0.7798,-2.7252,-1.9008,-0.9924,0,0,0
-0.5061,-0.3943,0.7822,-0.7786,-1.1527,-0.5954,0,0,0
-0.5078,-0.3831,0.7808,0.145,-0.9008,-0.7557,0,0,0
-0.5125,-0.3767,0.7822,-0.1908,-1.3053,-1.2519,0,0,0
-0.5132,-0.3723,0.7832,-1.0687,-1.4656,-1.8092,0,0,0
-0.512,-0.396,0.7893,-1.2901,-2.1069,-2.0229,0,0,0
-0.5127,-0.3909,0.7898,-0.2061,-2.2977,-1.2748,0,0,0
-0.5066,-0.3958,0.7852,0.4198,-2.6183,-1.5191,0,0,0
-0.5032,-0.3899,0.7961,-0.084,-2.2366,-1.8015,0,0,0
-0.5071,-0.3901,0.7979,0.0916,-1.5344,-1.7405,0,0,0
-0.5012,-0.3853,0.7874,-0.6489,-1.0916,-1.9084,0,0,0
-0.5029,-0.3855,0.8037,-2.1069,-0.2977,-2.0305,0,0,0
-0.5115,-0.4011,0.7991,-2.4504,-0.0763,-1.2061,0,0,0
-0.5095,-0.3948,0.7979,-2.2672,-0.3588,-0.9542,0,0,0
-0.5083,-0.3958,0.7966,-1.916,-0.3359,-1.2977,0,0,0
-0.5098,-0.3906,0.7886,-1.5344,-0.3817,-1.0992,0,0,0
-0.5105,-0.3892,0.7957,-1.687,-0.7634,-1.1298,0,0,0
-0.5039,-0.3789,0.7993,-2.6565,0.2595,-1.6031,0,0,0
-0.5115,-0.3926,0.7905,-3.2443,0.3206,-1.8321,0,0,0
-0.511,-0.3921,0.7847,-2.4351,-0.0305,-2.4275,0,0,0
-0.5085,-0.386,0.783,-2.1756,-0.6031,-2.5038,0,0,0
-0.51,-0.3855,0.7905,-2.0992,-0.5573,-3.2214,0,0,0
-0.5168,-0.3953,0.7842,-1.4962,-0.9924,-3.7328,0,0,0
-0.5105,-0.3867,0.7791,-0.1374,-1.2595,-4.3817,0,0,0
-0.4983,-0.3921,0.7969,-0.0992,-0.7099,-4.7328,0,0,0
-0.5027,-0.4014,0.7964,0.2595,0.7023,-4.626,0,0,0
-0.5037,-0.396,0.7974,0.6183,1.7176,-4.7939,0,0,0
-0.5012,-0.3987,0.7942,0.1221,2.3893,-4.0992,0,0,0
-0.5105,-0.3982,0.7969,-0.084,2.9695,-3.5649,0,0,0
-0.5071,-0.3948,0.7871,-0.7023,2.3053,-3.7099,0,0,0
-0.5032,-0.3977,0.7935,-1.0992,2.1374,-4.3435,0,0,0
-0.4878,-0.4155,0.8157,0.2977,3.2061,-5.5496,0,0,0
-0.4939,-0.418,0.8176,1.7634,5.3893,-5.0687,0,0,0
-0.4941,-0.418,0.8054,3.8473,7.6412,-3.7557,0,0,0
-0.5076,-0.3989,0.7944,3.8931,8.4809,-4.2443,0,0,0
-0.5151,-0.3997,0.7898,2.9084,7.7023,-4.6565,0,0,0
-0.512,-0.4119,0.7827,2.6947,6.7023,-3.8855,0,0,0
-0.5115,-0.4104,0.7808,2.145,6.4809,-1.9008,0,0,0
-0.5127,-0.4385,0.7856,4.458,6.6336,-0.0534,0,0,0
-0.51,-0.4138,0.7942,8.542,7.3664,-2.1069,0,0,0
-0.5022,-0.4119,0.8052,15.687,8.6031,-5.855,0,0,0
-0.5134,-0.3943,0.7954,21.4809,10.0229,-8.7099,0,0,0
-0.5107,-0.4026,0.7861,25.7634,11.1069,-7.9924,0,0,0
-0.5198,-0.4038,0.7715,29.7481,10.9847,-6.6641,0,0,0
-0.5247,-0.3838,0.7666,31.5573,10.0992,-4.771,0,0,0
-0.5217,-0.3635,0.7598,31.6336,8.9084,-2.4504,0,0,0
-0.5327,-0.3342,0.7683,28.8092,7.0229,-2.2137,0,0,0
-0.5464,-0.3142,0.7661,24.0458,4.8473,-2.5344,0,0,0
-0.5388,-0.3105,0.7715,18.0458,2.9084,-2.6412,0,0,0
-0.5405,-0.3115,0.7661,11.1985,0.1145,-2.229,0,0,0
-0.5361,-0.3081,0.7739,3.916,-2.3893,-2.6336,0,0,0
-0.5225,-0.3269,0.7983,-1.8168,-3.5878,-3.229,0,0,0
-0.5117,-0.3655,0.8203,-1.3969,-2.6412,-7.1679,0,0,0
-0.5022,-0.3752,0.8298,2.2748,-0.3511,-9.5725,0,0,0
-0.4973,-0.3955,0.8335,7.1985,3.4733,-9.0,0,0,0
-0.5205,-0.3977,0.8201,12.1298,5.4427,-7.1527,0,0,0
-0.5288,-0.3713,0.7996,14.9542,5.0229,-5.2901,0,0,0
-0.5381,-0.3438,0.7891,13.1145,2.8779,-4.3359,0,0,0
-0.5403,-0.3203,0.7854,9.2595,0.374,-3.8626,0,0,0
-0.5337,-0.3137,0.78,3.9924,-1.855,-4.0916,0,0,0
-0.5232,-0.3345,0.7998,-0.4656,-2.9924,-4.4351,0,0,0
-0.5166,-0.3452,0.803,-2.3435,-2.9924,-3.9466,0,0,0
-0.5225,-0.3572,0.8059,-1.8855,-2.6336,-4.4275,0,0,0
-0.5188,-0.3633,0.7983,-0.3053,-2.9542,-5.4351,0,0,0
-0.5146,-0.3608,0.7976,1.6031,-2.9771,-6.5954,0,0,0
-0.5186,-0.3494,0.7969,2.0458,-3.5344,-6.8779,0,0,0
-0.521,-0.356,0.7883,2.3053,-4.2748,-6.1603,0,0,0
-0.5266,-0.3401,0.7947,2.6336,-6.0992,-7.5344,0,0,0
-0.5146,-0.3337,0.7974,1.8321,-7.5878,-8.9008,0,0,0
-0.4995,-0.3408,0.8145,0.7328,-6.8855,-10.2061,0,0,0
-0.4924,-0.3467,0.8318,-0.2137,-3.4504,-8.3969,0,0,0
-0.5032,-0.355,0.8242,-0.8779,-0.5038,-7.2901,0,0,0
-0.5081,-0.3674,0.8164,-0.8092,0.771,-6.229,0,0,0
-0.5159,-0.3589,0.7981,-0.3435,0.2519,-5.0916,0,0,0
-0.5225,-0.3621,0.7908,-0.2672,-1.4504,-4.229,0,0,0
-0.5183,-0.3599,0.7847,0.3435,-3.1756,-5.0458,0,0,0
-0.5088,-0.3743,0.7986,2.458,-4.0458,-5.9466,0,0,0
-0.5039,-0.3557,0.8035,3.9695,-3.2824,-6.542,0,0,0
-0.4973,-0.3723,0.8062,5.4733,-2.2214,-6.7481,0,0,0
-0.5032,-0.3501,0.803,5.2901,-1.9237,-7.3435,0,0,0
-0.5012,-0.354,0.8113,3.3817,-1.1908,-6.2061,0,0,0
-0.5059,-0.3555,0.8088,0.7939,-1.1298,-4.7786,0,0,0
-0.5125,-0.3618,0.8103,-1.771,-2.0916,-3.4122,0,0,0
-0.5071,-0.3655,0.8147,-3.3893,-2.855,-2.1298,0,0,0
-0.502,-0.3782,0.8157,-3.9542,-3.542,-0.6336,0,0,0
-0.4983,-0.386,0.8206,-2.6412,-3.4504,0.2137,0,0,0
-0.4941,-0.3789,0.8237,-1.0611,-2.7786,1.313,0,0,0
-0.4895,-0.3699,0.8274,0.5267,-1.1756,1.2443,0,0,0
-0.491,-0.3552,0.8228,0.9084,0.542,0.9466,0,0,0
-0.4971,-0.345,0.8135,0.084,1.6947,-0.4656,0,0,0
-0.5073,-0.356,0.8069,-0.1908,1.7786,-1.1298,0,0,0
-0.5132,-0.3577,0.7988,0.1145,0.7634,-1.0076,0,0,0
-0.51,-0.3523,0.8083,0.1603,-0.374,-0.313,0,0,0
-0.5066,-0.3606,0.8162,0.0229,-1.3664,1.0458,0,0,0
-0.5059,-0.3418,0.8147,-0.771,-1.8779,1.5191,0,0,0
-0.4971,-0.345,0.8259,-2.1069,-0.9542,1.4504,0,0,0
-0.5012,-0.3452,0.824,-2.5954,0.4962,0.8855,0,0,0
-0.5005,-0.345,0.8167,-2.542,1.229,0.2443,0,0,0
-0.5049,-0.3513,0.8135,-1.9237,1.0534,-0.2977,0,0,0
-0.5105,-0.3523,0.8096,-1.2214,0.7176,-0.3282,0,0,0
-0.5107,-0.3555,0.8118,-0.9924,-0.2672,0.7481,0,0,0
-0.5066,-0.363,0.811,-0.7557,-0.9313,2.0229,0,0,0
-0.5112,-0.3721,0.8113,0.9466,-1.6565,2.374,0,0,0
-0.5081,-0.3438,0.804,1.4275,-1.8092,1.4504,1,0,0
-0.5073,-0.3545,0.8018,2.2672,-2.0687,0.9542,1,0,0
-0.5012,-0.3489,0.8079,1.6336,-1.9847,1.6718,1,0,0
-0.4985,-0.3513,0.8015,1.8931,-0.8092,1.3664,1,0,0
-0.5085,-0.3389,0.8176,1.8092,-0.5802,0.626,1,0,0
-0.4966,-0.3398,0.8044,2.4427,-0.9008,-2.3664,1,0,0
-0.509,-0.3479,0.8188,3.3969,0.374,-1.1832,1,0,0
-0.5154,-0.3301,0.8071,1.9771,-2.0229,-2.0305,1,0,0
-0.5029,-0.3364,0.811,1.6718,-2.8626,-1.0229,1,0,0
-0.5044,-0.3333,0.8159,-0.1985,-3.3435,-1.0687,1,0,0
-0.5044,-0.3386,0.8083,-2.1298,-3.8779,-0.8473,1,0,0
-0.4905,-0.3398,0.8223,-3.7863,-3.9084,-0.1832,1,0,0
-0.4944,-0.3401,0.8303,-3.9313,-2.8626,-0.5115,1,0,0
-0.4905,-0.355,0.8337,-4.3359,-1.9847,-0.7252,1,0,0
-0.4993,-0.3542,0.8291,-3.6947,-0.9466,-0.7023,1,0,0
-0.5017,-0.3574,0.8225,-3.2977,-0.2672,-0.9237,1,0,0
-0.5017,-0.3433,0.8271,-3.2824,-0.0229,-1.8321,1,0,0
-0.5029,-0.3584,0.8071,-2.9847,0.145,-2.7023,1,0,0
-0.5049,-0.3621,0.7954,-3.0611,-1.1527,-1.626,1,0,0
-0.5066,-0.333,0.8083,-4.3969,-1.8702,-0.9237,1,0,0
-0.5012,-0.3455,0.8091,-5.9695,-1.6947,-1.3893,1,0,0
-0.4912,-0.3623,0.8247,-5.0992,-1.5344,-0.7863,1,0,0
-0.4954,-0.3616,0.8218,-3.8473,-1.1298,-0.6336,1,0,0
-0.4976,-0.3628,0.8247,-1.9695,-0.3969,-0.374,1,0,0
-0.5027,-0.3589,0.8162,-1.6183,-0.2366,-0.1069,1,0,0
-0.5088,-0.3506,0.8118,-1.5344,-1.0,0.3511,1,0,0
-0.5,-0.3511,0.8174,-1.5725,-1.0534,0.5038,1,0,0
-0.4993,-0.3457,0.8052,-0.8626,-1.5496,0.0382,1,0,0
-0.4937,-0.3455,0.8188,-1.9084,-1.2366,0.0382,1,0,0
-0.4946,-0.3418,0.8188,-1.7099,-0.3053,-0.5038,1,0,0
-0.4976,-0.3352,0.8091,-2.1374,0.4427,-1.1832,1,0,0
-0.5076,-0.3376,0.8147,-3.5191,0.3206,-1.5878,1,0,0
-0.5068,-0.3423,0.814,-3.5115,0.2137,-1.6336,1,0,0
-0.509,-0.3474,0.8096,-3.687,-0.313,-1.7405,1,0,0
-0.5032,-0.3628,0.8052,-2.3282,-1.5649,-1.4733,1,0,0
-0.4973,-0.3669,0.8198,0.1145,-1.5802,-1.0153,1,0,0
-0.5002,-0.3533,0.8157,2.8244,-1.3206,-0.8626,1,0,0
-0.5,-0.3457,0.8118,2.8702,-0.9313,-1.5725,1,0,0
-0.4934,-0.3533,0.8242,3.3969,-0.2366,-2.1374,1,0,0
-0.5029,-0.3289,0.8201,2.5496,0.0763,-2.7939,1,0,0
-0.5054,-0.3447,0.8159,1.7481,0.229,-3.3359,1,0,0
-0.5037,-0.3438,0.8176,2.4885,-0.1908,-4.8168,1,0,0
-0.4929,-0.3459,0.8159,3.7099,-0.3359,-6.1603,1,0,0
-0.5022,-0.3435,0.8191,4.687,-0.2137,-6.3817,1,0,0
-0.5032,-0.3645,0.8208,4.4046,-0.3817,-4.3282,1,0,0
-0.502,-0.3472,0.8113,4.5038,0.0229,-2.1374,1,0,0
-0.5034,-0.3357,0.8057,3.2824,-0.8244,-1.8168,1,0,0
-0.4954,-0.3435,0.8093,2.1527,-1.313,-2.7634,1,0,0
-0.4968,-0.3469,0.8193,2.8702,-1.1679,-3.8931,1,0,0
-0.4934,-0.3567,0.821,2.8321,-0.7099,-3.5802,1,0,0
-0.4922,-0.3657,0.8213,3.0305,-0.0458,-1.4351,1,0,0
-0.502,-0.3538,0.811,2.2748,-0.4046,-0.3817,1,0,0
-0.502,-0.3403,0.8147,-0.2366,-1.0458,0.5115,1,0,0
-0.4956,-0.3467,0.8123,-1.687,-1.7328,0.6794,1,0,0
-0.4907,-0.3474,0.8232,-0.8015,-1.0076,-1.084,1,0,0
-0.4846,-0.3599,0.833,0.3893,0.1069,-1.9695,1,0,0
-0.4915,-0.3538,0.8352,2.0916,0.5038,-0.9542,1,0,0
-0.5002,-0.3511,0.8264,1.5649,0.3359,0.4427,1,0,0
-0.5017,-0.3359,0.8237,-0.0534,0.0763,1.4656,1,0,0
-0.501,-0.3247,0.8206,-3.1145,-0.7023,1.7863,1,0,0
-0.5051,-0.3232,0.8179,-5.6183,-1.1603,1.8931,1,0,0
-0.4983,-0.3499,0.8105,-5.8702,-2.0611,2.1756,1,0,0
-0.4976,-0.3635,0.824,-2.6565,-2.1985,2.6947,1,0,0
-0.4932,-0.3689,0.8225,1.5344,-1.145,3.1221,1,0,0
-0.4946,-0.3457,0.8203,5.0076,-0.2519,3.0687,1,0,0
-0.5061,-0.3267,0.8035,5.8321,-0.7405,3.0229,1,0,0
-0.5078,-0.3228,0.8037,5.1756,-1.1603,2.9237,1,0,0
-0.5071,-0.3186,0.8105,3.1221,-2.6489,2.3206,1,0,0
-0.4785,-0.3286,0.8228,0.8168,-3.9771,0.2748,1,0,0
-0.499,-0.3181,0.8308,-0.084,-1.9389,1.0229,1,0,0
-0.4878,-0.3169,0.8325,-2.374,-2.8321,0.2672,1,0,0
-0.4841,-0.333,0.8555,-1.7099,-1.0153,0.4809,1,0,0
-0.4976,-0.3198,0.8306,-2.8702,-0.313,-1.4351,1,0,0
-0.4966,-0.3181,0.8301,-5.3206,-0.8092,-1.4275,1,0,0
-0.4988,-0.3125,0.8303,-8.1985,-1.0076,-1.4198,1,0,0
-0.49,-0.3264,0.8389,-11.0153,-0.3969,-2.0,1,0,0
-0.4902,-0.3413,0.8521,-12.2748,1.3664,-2.8397,1,0,0
-0.4944,-0.3679,0.8437,-8.8244,3.6336,-4.1298,1,0,0
-0.488,-0.4048,0.8247,-2.3511,4.2748,-3.1679,1,0,0
-0.4929,-0.3457,0.8091,2.4962,5.0076,-2.0305,1,0,0
-0.5234,-0.3083,0.8081,1.0992,2.458,-4.0534,1,0,0
-0.5015,-0.3171,0.8015,-1.458,0.771,-3.2443,1,0,0
-0.5024,-0.3184,0.7964,-4.458,0.084,-2.4733,1,0,0
-0.5032,-0.3228,0.7996,-6.3664,-0.6947,-2.8626,1,0,0
-0.4976,-0.3447,0.8049,-6.4733,-1.542,-1.6718,1,0,0
-0.501,-0.3586,0.8079,-5.1221,-2.3282,-0.7557,1,0,0
-0.5017,-0.3582,0.8044,-2.6565,-2.5573,-0.7939,1,0,0
-0.4971,-0.3521,0.8096,0.5496,-2.6565,-0.8779,1,0,0
-0.4922,-0.3467,0.8174,1.8855,-3.1527,-1.5802,1,0,0
-0.4944,-0.3403,0.8193,2.1145,-2.8855,-1.5344,1,0,0
-0.4907,-0.3435,0.8323,1.4122,-2.1832,-1.4351,1,0,0
-0.4961,-0.3379,0.8394,-0.2366,-1.4504,-1.4885,1,0,0
-0.4915,-0.3433,0.833,-1.2672,-1.0,-1.3817,1,0,0
-0.4995,-0.3416,0.835,-2.2595,-1.1145,-1.6565,1,0,0
-0.491,-0.356,0.8301,-1.4656,-1.1145,-1.9695,1,0,0
-0.4944,-0.3418,0.8235,-0.5954,-0.9695,-2.4122,1,0,0
-0.4944,-0.3489,0.8198,0.7099,-1.2137,-3.3359,1,0,0
-0.4912,-0.3516,0.8232,2.8321,-1.2901,-3.5954,1,0,0
-0.4958,-0.3391,0.8357,3.4504,-0.9313,-3.8321,1,0,0
-0.4878,-0.3374,0.8276,3.0076,-0.1679,-3.9771,1,0,0
-0.4973,-0.3286,0.8262,2.5496,0.1603,-3.9924,1,0,0
-0.4966,-0.3105,0.8367,0.8626,0.458,-5.6031,1,0,0
-0.489,-0.3262,0.8447,1.3511,1.1374,-9.6718,1,0,0
-0.4897,-0.3269,0.8354,3.3588,2.0382,-13.1298,1,0,0
-0.4949,-0.3352,0.8333,3.9847,2.7863,-13.8244,1,0,0
-0.4939,-0.3425,0.8191,4.229,2.7863,-11.6565,1,0,0
-0.5007,-0.3384,0.8206,3.6183,2.3588,-8.5649,1,0,0
-0.4939,-0.3523,0.821,3.1145,2.0,-5.3893,1,0,0
-0.4949,-0.3513,0.8188,4.2366,1.7023,-3.916,1,0,0
-0.4912,-0.343,0.8149,3.8015,1.0229,-2.9771,1,0,0
-0.4961,-0.3401,0.8142,2.6489,0.3053,-2.0534,1,0,0
-0.4971,-0.3401,0.8159,1.7252,-1.0153,-1.9695,1,0,0
-0.4866,-0.3481,0.8179,1.084,-1.9313,-2.6107,1,0,0
-0.4807,-0.3357,0.8367,3.1145,-0.4809,-6.8702,1,0,0
-0.4729,-0.3396,0.8408,6.3969,1.5725,-11.7634,1,0,0
-0.4768,-0.3342,0.8477,7.1145,4.2214,-13.4733,1,0,0
-0.4897,-0.3501,0.842,6.0382,6.0153,-9.9847,1,0,0
-0.5059,-0.3386,0.8262,2.9924,5.1603,-7.4275,1,0,0
-0.5051,-0.3423,0.8257,0.7481,2.8779,-5.3359,1,0,0
-0.5044,-0.3379,0.8066,-0.542,0.1908,-2.7786,1,0,0
-0.4971,-0.3472,0.8213,-2.2443,-1.5649,-1.0382,1,0,0
-0.489,-0.3418,0.8123,-2.2748,-1.9389,0.2061,1,0,0
-0.4819,-0.3494,0.8286,-1.4046,-1.2214,-0.8244,1,0,0
-0.4844,-0.3491,0.8215,-0.8244,-0.2901,-0.542,1,0,0
-0.4861,-0.3408,0.8186,-1.0687,0.7405,-0.1908,1,0,0
-0.4888,-0.356,0.8137,0.916,0.9771,-2.2901,1,0,0
-0.4958,-0.3342,0.8125,3.3053,0.6565,-3.374,1,0,0
-0.4912,-0.3506,0.8154,3.2366,0.8168,-3.5496,1,0,0
-0.4944,-0.3645,0.8274,5.0916,0.2061,-2.3969,1,0,0
-0.4971,-0.3442,0.823,7.9313,-0.8397,-2.1298,1,0,0
-0.4856,-0.332,0.8213,6.9008,-1.084,-0.8397,1,0,0
-0.4917,-0.3164,0.8201,4.5649,-1.5115,0.916,1,0,0
-0.5012,-0.2998,0.822,0.1374,-2.3206,1.2901,1,0,0
-0.4985,-0.3079,0.823,-5.2214,-3.5267,0.7481,1,0,0
-0.489,-0.3311,0.8308,-7.855,-3.9466,1.1298,1,0,0
-0.4824,-0.343,0.8398,-7.5725,-3.916,1.1756,1,0,0
-0.4778,-0.3743,0.8428,-3.0763,-2.3359,-0.4656,1,0,0
-0.4749,-0.3687,0.8425,3.7939,-0.3359,-1.0687,1,0,0
-0.4846,-0.355,0.8367,9.2824,1.4198,-0.9313,1,0,0
-0.4907,-0.3445,0.8198,12.5496,1.3817,-0.7023,1,0,0
-0.502,-0.3291,0.8159,14.6183,0.1603,-0.7939,1,0,0
-0.4971,-0.2964,0.8142,13.6336,-1.0992,-0.8779,1,0,0
-0.4995,-0.3008,0.8118,11.2595,-2.7328,-1.2137,1,0,0
-0.4924,-0.2969,0.8101,9.4351,-3.6641,-2.3435,1,0,0
-0.4858,-0.3237,0.8323,11.9008,-3.5802,-4.3893,1,0,0
-0.4907,-0.3079,0.8289,14.7786,-3.4046,-6.5344,1,0,0
-0.4839,-0.3208,0.8401,18.8168,-3.1374,-8.7328,1,0,0
-0.4885,-0.2969,0.8372,20.5344,-2.9389,-10.4656,1,0,0
-0.4951,-0.292,0.8342,17.6031,-2.9313,-8.2824,1,0,0
-0.4988,-0.271,0.8354,11.6489,-3.6565,-6.1603,1,0,0
-0.5632,-0.3484,0.8286,-0.7557,-5.626,-3.1832,1,0,0
-0.489,-0.3037,0.8464,-5.2366,-7.3588,-4.5725,1,0,0
-0.4683,-0.3435,0.8699,-4.1832,-6.3053,-2.313,1,0,0
-0.4509,-0.3313,0.8721,-0.2901,-4.6641,-2.7099,1,0,0
-0.4648,-0.3376,0.8584,3.5344,-2.8779,-4.626,1,0,0
-0.48,-0.3455,0.8677,4.8168,-0.7023,-3.6107,1,0,0
-0.4832,-0.3171,0.8508,3.6183,0.8855,-0.2748,1,0,0
-0.4805,-0.2964,0.844,-0.2137,-0.1298,0.5496,1,0,0
-0.4785,-0.2939,0.8347,-5.3282,-1.6947,-0.1756,1,0,0
-0.4802,-0.3013,0.8269,-9.1985,-2.9618,0.3435,1,0,0
-0.4866,-0.3171,0.8286,-12.3206,-5.0458,1.3817,1,0,0
-0.4746,-0.3381,0.8408,-11.2672,-5.5802,1.626,1,0,0
-0.4614,-0.3613,0.8374,-4.9847,-3.7023,0.8626,1,0,0
-0.47,-0.3433,0.8401,3.1374,-2.4122,0.3588,1,0,0
-0.4795,-0.3206,0.8384,8.1603,-1.6183,0.2672,1,0,0
-0.4973,-0.2913,0.8328,8.916,-2.5115,0.8168,1,0,0
-0.4971,-0.269,0.8276,5.0382,-4.7634,1.0382,1,0,0
-0.4861,-0.2556,0.8364,-1.0687,-6.1603,1.2519,1,0,0
-0.4797,-0.2659,0.8501,-6.8855,-7.4656,0.3893,1,0,0
-0.4795,-0.2991,0.8591,-10.7023,-7.9313,0.5725,1,0,0
-0.4734,-0.3201,0.8579,-11.7099,-8.4809,0.9084,1,0,0
-0.4746,-0.3247,0.876,-11.0916,-8.771,1.687,1,0,0
-0.4634,-0.3467,0.8745,-10.0458,-8.7786,3.4275,1,0,0
-0.4619,-0.3584,0.8733,-6.6565,-7.7939,5.626,1,0,0
-0.459,-0.3447,0.8657,-4.458,-7.3893,6.8702,1,0,0
-0.4675,-0.324,0.8494,-5.1221,-7.0229,8.2824,1,0,0
-0.4795,-0.3235,0.8333,-8.7939,-8.6183,10.7176,1,0,0
-0.4277,-0.3086,0.8306,-13.0076,-14.229,14.2061,1,0,0
-0.4812,-0.3201,0.8206,-17.4885,-15.6336,16.4351,1,0,0
-0.5083,-0.3259,0.8025,-23.6489,-20.9771,20.0,1,0,0
-0.5029,-0.3281,0.7939,-29.5878,-27.3664,23.3435,1,0,0
-0.4797,-0.324,0.8057,-36.4275,-33.6947,26.4122,1,0,0
-0.4446,-0.3865,0.8611,-36.8244,-34.4046,26.7252,1,0,0
-0.4143,-0.4026,0.8953,-22.771,-32.0,21.0687,1,0,0
-0.4001,-0.3467,0.886,-7.4198,-25.5114,13.1298,1,0,0
-0.3838,-0.3289,0.9124,2.7863,-15.3206,8.0458,1,0,0
-0.4226,-0.3079,0.9021,7.6107,-5.5573,5.9237,1,0,0
-0.4363,-0.2893,0.894,8.9313,0.0229,5.8015,1,0,0
-0.4504,-0.2773,0.8655,7.8473,0.9847,6.3588,1,0,0
-0.4595,-0.2937,0.843,6.9924,-1.7099,7.3817,1,0,0
-0.4539,-0.249,0.865,4.9389,-3.5802,6.9847,1,0,0
-0.4619,-0.2632,0.8523,1.9466,-4.6336,7.7634,1,0,0
-0.4463,-0.2671,0.856,0.1298,-6.3893,6.3969,1,0,0
-0.4238,-0.271,0.8601,1.9695,-7.7557,-0.2443,1,0,0
-0.4688,-0.302,0.894,2.6412,-2.3893,-0.2901,1,0,0
-0.4231,-0.2507,0.8804,1.4962,-3.229,-2.3588,1,0,0
-0.4409,-0.3257,0.8889,1.2901,-1.3893,-3.0611,1,0,0
-0.4392,-0.2832,0.8816,0.0458,-1.5115,-3.771,1,0,0
-0.4397,-0.2979,0.8738,-2.8015,-1.1145,-4.4504,1,0,0
-0.4321,-0.2937,0.8853,-7.145,-1.2672,-4.6412,1,0,0
-0.4277,-0.3179,0.8911,-10.0916,0.2519,-5.0076,1,0,0
-0.4282,-0.3362,0.8936,-11.4427,1.4198,-4.2748,1,0,0
-0.436,-0.3503,0.8845,-9.8931,3.4122,-4.5725,1,0,0
-0.4277,-0.356,0.8735,-6.4351,4.9771,-6.5573,1,0,0
-0.4346,-0.3599,0.8582,-2.916,5.2366,-5.8931,1,0,0
-0.4436,-0.3308,0.8516,-1.313,5.0153,-5.3053,1,0,0
-0.4458,-0.3179,0.8552,-1.8855,5.0076,-4.5267,1,0,0
-0.4558,-0.3159,0.8403,-3.2748,3.7786,-3.0763,1,0,0
-0.4519,-0.3164,0.8396,-5.1756,1.855,-0.855,1,0,0
-0.4509,-0.3254,0.8384,-5.8779,0.5191,0.1756,1,0,0
-0.4539,-0.3203,0.8359,-5.687,-0.4885,0.2137,1,0,0
-0.4485,-0.3279,0.8484,-4.687,-1.3359,0.8931,1,0,0
-0.4419,-0.3162,0.8586,-2.8702,-1.6336,0.7634,1,0,0
-0.4363,-0.321,0.8604,-1.5267,-0.9771,0.4046,1,0,0
-0.4438,-0.3259,0.8647,0.3893,0.1374,0.3206,1,0,0
-0.4438,-0.3137,0.8616,1.4962,0.7939,-0.1069,1,0,0
-0.4482,-0.3032,0.8628,0.7863,0.5954,-0.5191,1,0,0
-0.4473,-0.2959,0.8594,-1.4122,-0.1145,-0.2519,1,0,0
-0.4502,-0.3118,0.8638,-3.0687,-0.5191,0.0153,1,0,0
-0.4453,-0.3091,0.8684,-4.374,-1.4809,-0.1221,1,0,0
-0.4443,-0.3198,0.8696,-5.1908,-1.1374,-0.5573,1,0,0
-0.4375,-0.3225,0.8701,-4.4504,-0.1985,-0.4504,1,0,0
-0.4414,-0.3176,0.8662,-4.3664,0.7252,-1.084,1,0,0
-0.4319,-0.3333,0.8755,-3.1603,2.2443,-1.5496,1,0,0
-0.4407,-0.3354,0.874,-1.8397,4.3893,-0.8931,1,0,0
-0.4402,-0.3391,0.8672,0.1527,6.6794,0.0,1,0,0
-0.4465,-0.3188,0.8523,0.5878,7.3817,-0.0687,1,0,0
-0.46,-0.3157,0.8484,0.1374,6.2137,-0.7405,1,0,0
-0.4778,-0.3423,0.8335,0.5344,2.7176,0.7405,1,0,0
-0.4751,-0.3674,0.853,3.2061,-1.1985,4.3511,1,0,0
-0.4917,-0.3672,0.8289,8.374,-5.5344,11.2672,1,0,0
-0.4436,-0.2891,0.8193,12.7328,-8.7634,10.0763,1,0,0
-0.3982,-0.4353,0.9009,13.5802,-5.5725,6.6031,1,0,0
-0.5044,-0.1995,0.8291,9.0458,-7.6947,5.9618,1,0,0
-0.425,-0.2712,0.843,0.0305,-7.3817,1.6336,1,0,0
-0.4619,-0.2935,0.8623,-3.3435,-6.8321,1.1374,1,0,0
-0.4302,-0.2817,0.8613,-5.9237,-5.374,-1.542,1,0,0
-0.4502,-0.3,0.8569,-9.2901,-5.8779,-0.7328,1,0,0
-0.4326,-0.3149,0.8813,-11.7328,-6.0458,0.0305,1,0,0
-0.4316,-0.3308,0.8967,-10.8931,-4.3588,0.7252,1,0,0
-0.4302,-0.3157,0.895,-9.4351,-2.0153,1.0076,1,0,0
-0.4365,-0.2991,0.8884,-9.4275,0.2214,-0.1832,1,0,0
-0.4407,-0.2898,0.8953,-9.7863,1.9084,-2.8168,1,0,0
-0.4373,-0.2983,0.887,-10.313,3.8626,-4.5649,1,0,0
-0.4187,-0.2795,0.9141,-11.3664,7.4046,-7.1145,1,0,0
-0.4487,-0.3364,0.8481,-9.8168,7.2595,-5.8855,1,0,0
-0.4587,-0.3079,0.8503,-8.5725,4.0992,-4.916,1,0,0
-0.4629,-0.2842,0.8528,-11.9695,2.8702,-4.2748,1,0,0
-0.4553,-0.3174,0.8437,-13.2901,1.9389,-4.8397,1,0,0
-0.4521,-0.3508,0.8472,-12.2748,1.2137,-2.9466,1,0,0
-0.4546,-0.3481,0.8523,-9.1832,0.5038,-1.6183,1,0,0
-0.45,-0.3521,0.8437,-7.3282,-0.2443,-1.4656,1,0,0
-0.4417,-0.3582,0.8457,-5.2748,0.2595,-0.5344,1,0,0
-0.4458,-0.354,0.8472,-4.687,-0.0305,0.4122,1,0,0
-0.4531,-0.3499,0.8523,-6.1679,-0.6336,1.0382,1,0,0
-0.437,-0.3582,0.8545,-7.0229,-0.5267,2.2595,1,0,0
-0.4346,-0.3538,0.8652,-6.8321,0.542,1.7328,1,0,0
-0.4409,-0.3586,0.8616,-5.458,1.4198,0.2748,1,0,0
-0.4402,-0.3562,0.8599,-3.5344,2.1145,1.0229,1,0,0
-0.4526,-0.345,0.8511,-3.3511,2.2137,1.5191,1,0,0
-0.459,-0.3481,0.8516,-2.5267,1.1145,2.3588,1,0,0
-0.4551,-0.3257,0.8423,-1.5878,0.0611,3.4351,1,0,0
-0.4497,-0.3179,0.845,-2.1908,-0.7099,3.0763,1,0,0
-0.4485,-0.3137,0.8486,-3.0305,-1.0229,2.9466,1,0,0
-0.4539,-0.3123,0.8433,-3.8015,-0.8092,2.2137,1,0,0
-0.4438,-0.3184,0.8479,-5.6336,-0.2443,2.8626,1,0,0
-0.4402,-0.3196,0.8601,-6.4885,1.1527,3.145,1,0,0
-0.4441,-0.3101,0.8728,-7.084,2.8702,2.1069,1,0,0
-0.4426,-0.3008,0.8779,-9.5725,5.0458,0.5954,1,0,0
-0.4468,-0.3274,0.8701,-11.8473,6.9313,0.5573,1,0,0
-0.446,-0.3506,0.8816,-11.4809,8.458,1.5115,1,0,0
-0.4331,-0.3542,0.8804,-10.7176,11.5802,3.5038,1,0,0
-0.4563,-0.3574,0.873,-10.2366,13.9695,6.4733,1,0,0
-0.4568,-0.3567,0.8601,-11.1527,14.7481,8.3664,1,0,0
-0.4631,-0.3396,0.8503,-11.9313,14.3817,9.6718,1,0,0
-0.4729,-0.3516,0.834,-13.8092,12.6641,10.6183,1,0,0
-0.4766,-0.3647,0.8264,-15.229,10.5496,12.3893,1,0,0
-0.4773,-0.3623,0.8208,-16.9389,9.0992,15.6794,1,0,0
-0.4824,-0.3962,0.8108,-16.9695,7.5802,18.8244,1,0,0
-0.4705,-0.3809,0.8193,-15.6565,7.1145,21.8244,1,0,0
-0.4807,-0.3669,0.8064,-14.6031,7.0687,22.0076,1,0,0
-0.4768,-0.3535,0.8052,-14.9542,6.8244,21.0229,1,0,0
-0.4893,-0.3447,0.8052,-15.1145,5.7023,19.7252,1,0,0
-0.4949,-0.3413,0.8103,-15.374,4.4885,18.1145,1,0,0
-0.4919,-0.3428,0.8098,-13.8321,3.2137,14.8626,1,0,0
-0.4807,-0.3313,0.8225,-10.6031,4.5115,10.5344,1,0,0
-0.4814,-0.3381,0.832,-5.8626,6.9237,6.2977,1,0,0
-0.4829,-0.321,0.8376,-1.6336,9.7405,2.4656,1,0,0
-0.4905,-0.321,0.8252,2.2061,11.4046,-0.3053,1,0,0
-0.4966,-0.3123,0.8364,3.5954,12.5802,-0.9084,1,0,0
-0.4961,-0.3198,0.8328,5.1527,13.7252,-2.9466,1,0,0
-0.4971,-0.3123,0.844,5.9847,15.5573,-1.7939,1,0,0
-0.5154,-0.3225,0.8276,6.3359,16.8855,-1.5344,1,0,0
-0.512,-0.3015,0.8237,5.7252,15.8855,-1.5573,1,0,0
-0.5195,-0.2825,0.8076,3.7557,14.8855,-4.2595,0,0,0
-0.5127,-0.2927,0.8157,2.0305,12.6107,-8.4198,0,0,0
-0.4919,-0.311,0.8381,6.2595,14.2595,-15.9618,0,0,0
-0.5024,-0.3301,0.832,11.8626,16.5802,-22.9313,0,0,0
-0.522,-0.3518,0.8096,16.8702,15.7328,-22.458,0,0,0
-0.5,-0.3496,0.8208,18.8702,16.8702,-18.2901,0,0,0
-0.5244,-0.3411,0.7971,17.3664,15.9313,-13.4275,0,0,0
-0.5388,-0.3245,0.7964,14.916,12.9618,-10.2137,0,0,0
-0.5293,-0.3105,0.8054,15.626,11.2748,-16.5573,0,0,0
-0.5083,-0.2949,0.8149,16.3893,12.5496,-22.7023,0,0,0
-0.5129,-0.3318,0.8108,16.458,13.9008,-24.3435,0,0,0
-0.5217,-0.3433,0.8062,16.6565,15.145,-21.9695,0,0,0
-0.5303,-0.3489,0.7971,16.0458,12.8855,-19.0916,0,0,0
-0.5376,-0.343,0.7837,14.9389,11.0382,-15.7557,0,0,0
-0.541,-0.3335,0.782,12.7176,7.9389,-14.0382,0,0,0
-0.5283,-0.323,0.7942,10.4122,6.3817,-13.5115,0,0,0
-0.5337,-0.3171,0.7947,6.6641,5.0458,-12.7481,0,0,0
-0.5288,-0.3315,0.7881,1.9771,3.4275,-10.855,0,0,0
-0.5317,-0.3423,0.7832,-2.5573,2.3817,-9.0,0,0,0
-0.5247,-0.3674,0.7959,-4.145,0.8244,-7.4733,0,0,0
-0.5171,-0.3799,0.7993,-2.2672,0.6794,-5.5802,1,0,0
-0.5215,-0.373,0.7898,-1.3206,-0.2443,-3.5115,1,0,0
-0.5273,-0.3711,0.7927,-0.8931,-0.5802,-0.7405,1,0,0
-0.5273,-0.3633,0.8008,0.1145,-1.0382,0.7939,1,0,0
-0.5195,-0.3428,0.7917,1.4885,-1.6641,-1.374,1,0,0
-0.5168,-0.3303,0.8037,2.8015,-1.7405,-3.6183,1,0,0
-0.5176,-0.3386,0.8081,4.7939,-1.1145,-4.8931,1,0,0
-0.5261,-0.3374,0.8052,8.3206,-0.9237,-5.7176,1,0,0
-0.5278,-0.3201,0.8103,9.2519,-2.0916,-6.2977,1,0,0
-0.5249,-0.3086,0.8022,7.7786,-3.0534,-5.2901,1,0,0
-0.5237,-0.2937,0.8022,5.2595,-3.6336,-3.8092,1,0,0
-0.5313,-0.2898,0.8091,0.7252,-4.6794,-3.2901,1,0,0
-0.5205,-0.2996,0.8103,-3.9008,-5.9084,-2.5344,1,0,0
-0.5198,-0.322,0.8176,-5.3359,-5.6794,-2.1145,1,0,0
-0.5117,-0.3459,0.8171,-4.6183,-5.2824,-1.3817,1,0,0
-0.5139,-0.3481,0.8162,-0.9237,-4.7252,-2.0534,1,0,0
-0.511,-0.3503,0.8093,2.4504,-4.6412,-2.0992,1,0,0
-0.5156,-0.3403,0.8103,3.7863,-5.0153,-1.5344,1,0,0
-0.5205,-0.3215,0.8066,3.7481,-5.6947,-1.3435,1,0,0
-0.5164,-0.3174,0.8062,1.5802,-6.5802,-2.1679,1,0,0
-0.51,-0.3174,0.8042,-1.1908,-7.6107,-2.3969,1,0,0
-0.5103,-0.3325,0.812,-3.1756,-7.8015,-1.8779,1,0,0
-0.5134,-0.3325,0.8081,-4.0305,-8.6794,-1.6794,1,0,0
-0.5103,-0.3511,0.8152,-3.6947,-8.9924,-1.374,1,0,0
-0.5032,-0.3569,0.8264,-1.6947,-9.084,-0.6794,1,0,0
-0.4998,-0.3403,0.8242,-0.0229,-7.5267,1.0382,1,0,0
-0.4922,-0.3398,0.8311,0.2595,-6.4122,1.5954,1,0,0
-0.4978,-0.3264,0.8433,-0.0153,-4.6336,1.6336,1,0,0
-0.498,-0.3225,0.8303,-0.5191,-3.8092,0.9389,1,0,0
-0.4983,-0.3203,0.8403,-1.7176,-3.1145,1.145,1,0,0
-0.5005,-0.3267,0.8457,-3.0763,-2.5267,1.4504,1,0,0
-0.5027,-0.3335,0.8437,-3.4275,-2.2824,1.8015,1,0,0
-0.4993,-0.3303,0.842,-2.0763,-1.916,2.3053,1,0,0
-0.5002,-0.321,0.8347,-1.9695,-1.3588,1.7405,1,0,0
-0.4988,-0.3218,0.8428,-1.7328,-0.7099,0.7863,1,0,0
-0.5049,-0.314,0.8247,-1.0534,-0.4809,0.2366,1,0,0
-0.5024,-0.3093,0.8315,-2.1985,0.4885,-0.6412,1,0,0
-0.5029,-0.3167,0.8291,-3.1908,1.2366,-0.8092,1,0,0
-0.5083,-0.3213,0.8174,-3.7405,0.6107,-0.7939,1,0,0
-0.511,-0.3201,0.8262,-4.8244,0.0534,-0.6107,1,0,0
-0.5068,-0.3335,0.8237,-4.2595,0.0229,-0.5649,1,0,0
-0.5029,-0.3425,0.8245,-2.2061,-0.3511,0.2137,1,0,0
-0.5022,-0.3381,0.8206,-0.1298,-0.0687,-0.6412,1,0,0
-0.502,-0.3225,0.8062,0.6336,-0.313,-0.7939,1,0,0
-0.5015,-0.3218,0.8176,-0.1374,-0.6489,-0.4198,1,0,0
-0.5017,-0.3196,0.8154,-1.6718,-0.7863,-0.4656,1,0,0
-0.5044,-0.3098,0.8113,-3.2824,-0.3359,-0.7481,1,0,0
-0.5039,-0.3345,0.8154,-4.6718,0.1756,-0.7252,1,0,0
-0.5034,-0.3433,0.822,-4.145,-0.4351,0.3664,1,0,0
-0.5051,-0.3367,0.824,-2.9008,-0.8702,0.2366,1,0,0
-0.5,-0.3433,0.8298,-2.2137,-1.3664,0.3359,1,0,0
-0.4968,-0.3433,0.8386,-1.6183,-0.6794,0.9237,1,0,0
-0.5056,-0.334,0.8242,-1.5802,-0.4885,1.7786,1,0,0
-0.5093,-0.3198,0.8184,-1.9542,-0.6183,1.916,1,0,0
-0.4995,-0.3206,0.8284,-4.0229,-0.9771,2.0534,1,0,0
-0.5029,-0.3193,0.8308,-6.1985,-0.1908,3.0687,1,0,0
-0.5027,-0.3149,0.8296,-8.6565,0.2137,3.0076,1,0,0
-0.5044,-0.334,0.8342,-8.8092,0.9695,1.8779,1,0,0
-0.5115,-0.3323,0.8284,-6.3893,0.4962,1.1145,1,0,0
-0.5117,-0.3357,0.8179,-4.4809,0.4275,0.8092,1,0,0
-0.511,-0.3398,0.812,-2.1069,-0.4198,0.4504,1,0,0
-0.5132,-0.3252,0.8113,-0.6412,-2.145,0.9466,1,0,0
-0.5027,-0.3152,0.8152,-1.3359,-2.1756,1.0305,1,0,0
-0.4951,-0.3213,0.8184,-2.0229,-0.8397,2.1985,1,0,0
-0.5027,-0.3186,0.8213,-2.2519,0.5115,2.0611,1,0,0
-0.5034,-0.3147,0.8188,-4.0611,0.7481,2.3359,1,0,0
-0.5054,-0.3171,0.812,-5.8244,1.3893,2.9542,1,0,0
-0.5105,-0.3306,0.8186,-7.9313,0.5573,4.4962,1,0,0
-0.5093,-0.3379,0.8137,-10.4351,0.2901,6.4733,1,0,0
-0.5132,-0.3623,0.8179,-12.229,-0.2061,9.3359,1,0,0
-0.5156,-0.3591,0.8022,-13.9695,-2.0229,13.6183,1,0,0
-0.5132,-0.3672,0.8074,-15.7863,-4.0153,16.7023,1,0,0
-0.5029,-0.3589,0.8152,-15.8015,-4.1527,17.1756,1,0,0
-0.4985,-0.3594,0.8169,-14.0916,-3.687,15.2443,1,0,0
-0.5007,-0.3413,0.8218,-13.1603,-2.2977,11.916,1,0,0
-0.4993,-0.3381,0.8208,-12.3511,-0.4198,9.7786,1,0,0
-0.5129,-0.3433,0.8049,-11.771,0.1985,8.8168,1,0,0
-0.5269,-0.3503,0.7996,-11.1374,-1.3053,9.3664,1,0,0
-0.5271,-0.3582,0.8013,-7.7557,-2.7176,11.0687,1,0,0
-0.5227,-0.3279,0.8035,-5.3053,-4.6794,11.2901,1,0,0
-0.5122,-0.3059,0.814,-4.145,-5.3969,9.2901,1,0,0
-0.5093,-0.2813,0.8208,-4.229,-4.1527,6.626,1,0,0
-0.5095,-0.2896,0.8298,-4.0611,-2.6794,3.3359,1,0,0
-0.5149,-0.2964,0.823,-3.2824,-1.771,1.3282,1,0,0
-0.5117,-0.3044,0.8325,-1.5191,-1.2748,0.626,1,0,0
-0.5161,-0.3113,0.8286,0.1221,-1.4809,0.4733,1,0,0
-0.519,-0.3076,0.8281,1.1679,-1.4427,0.0763,1,0,0
-0.5144,-0.2947,0.8374,0.3435,-1.4656,-0.0229,1,0,0
-0.5349,-0.3044,0.8303,-1.9389,-0.4122,-1.0534,1,0,0
-0.4851,-0.2976,0.8284,-3.9771,0.3206,-2.0916,1,0,0
-0.5105,-0.323,0.823,-4.9008,0.2595,-4.1374,1,0,0
-0.5156,-0.3472,0.8149,-3.2443,0.4733,-4.2824,1,0,0
-0.5193,-0.3481,0.8049,-2.0611,-0.2519,-4.458,1,0,0
-0.51,-0.3586,0.7979,-1.1985,-0.6489,-3.2595,1,0,0
-0.5063,-0.3618,0.8103,-0.6947,-0.2748,-2.1374,1,0,0
-0.5073,-0.3574,0.8054,-0.7786,-0.145,-0.9084,1,0,0
-0.511,-0.3513,0.7922,-0.5038,0.4962,-0.374,1,0,0
-0.5181,-0.3469,0.7927,-1.7252,-0.7481,-0.5191,1,0,0
-0.5112,-0.3513,0.7927,-2.9924,-2.2137,0.7252,1,0,0
-0.5173,-0.354,0.8093,-3.2748,-3.1145,1.8626,1,0,0
-0.5078,-0.3477,0.8118,-3.2824,-3.2748,2.5573,1,0,0
-0.5056,-0.3418,0.813,-2.5115,-3.3893,2.6183,1,0,0
-0.5056,-0.3337,0.8179,-3.0382,-2.4122,2.374,1,0,0
-0.5217,-0.3367,0.8213,-3.9313,-1.3588,2.1069,1,0,0
-0.499,-0.3359,0.8264,-3.6641,-1.4122,2.855,1,0,0
-0.5105,-0.3225,0.8215,-3.1527,-1.374,2.8244,1,0,0
-0.5129,-0.3232,0.8176,-3.8779,-1.2595,2.7939,1,0,0
-0.52,-0.323,0.8169,-4.4885,-1.5191,2.8244,1,0,0
-0.5137,-0.3152,0.8167,-5.6489,-1.8015,2.4275,1,0,0
-0.5073,-0.3088,0.821,-6.542,-1.9313,2.0763,1,0,0
-0.4993,-0.3281,0.825,-5.1985,-0.4351,0.9618,1,0,0
-0.5115,-0.3318,0.8311,-3.1527,0.7939,-0.3053,1,0,0
-0.5117,-0.3362,0.8203,-0.4275,1.5725,-0.1298,1,0,0
-0.5137,-0.322,0.814,0.6336,2.0916,0.0763,1,0,0
-0.5125,-0.3181,0.823,-0.145,2.2824,-0.229,1,0,0
-0.5125,-0.3215,0.812,-0.4427,2.7481,0.0534,1,0,0
-0.5168,-0.323,0.8081,-0.5344,2.4122,-0.2519,1,0,0
-0.5178,-0.3213,0.8032,-0.5954,1.9237,-1.2137,1,0,0
-0.522,-0.3298,0.7991,-0.8015,0.7405,-1.5878,1,0,0
-0.5125,-0.332,0.8081,-1.3359,-0.5496,-1.145,1,0,0
-0.5093,-0.3381,0.8213,-2.1832,0.1679,0.0992,1,0,0
-0.5071,-0.3501,0.8271,-2.2366,1.5878,1.1527,1,0,0
-0.5115,-0.3516,0.8354,-0.4351,3.0611,1.1298,1,0,0
-0.52,-0.3398,0.8079,0.4427,2.9618,0.2595,1,0,0
-0.5247,-0.3499,0.7952,0.9466,0.8702,0.4656,1,0,0
-0.5278,-0.3379,0.7971,2.1908,-1.1756,0.3664,1,0,0
-0.5137,-0.3254,0.8108,0.5496,-2.1069,0.5115,1,0,0
-0.5039,-0.3318,0.8232,-1.1603,-0.6794,1.4122,1,0,0
-0.5093,-0.335,0.8313,-1.2748,2.084,2.1679,1,0,0
-0.5161,-0.333,0.834,0.6794,3.8626,0.9618,1,0,0
-0.5212,-0.3325,0.8113,2.9924,4.4885,0.2824,1,0,0
-0.5273,-0.3247,0.7988,3.3588,2.6947,0.5954,1,0,0
-0.5374,-0.3103,0.7832,3.4809,-0.0382,0.0229,1,0,0
-0.5139,-0.3245,0.8152,1.9924,0.2137,-2.2672,1,0,0
-0.5354,-0.3008,0.8052,0.8321,-0.145,-0.5191,1,0,0
-0.5083,-0.314,0.8088,-1.4656,-1.9466,0.1908,1,0,0
-0.5151,-0.3,0.8096,-3.4198,-1.0458,0.0916,1,0,0
-0.5132,-0.3162,0.8188,-6.771,-0.687,-1.1603,1,0,0
-0.512,-0.3247,0.8284,-7.8244,0.9618,-0.7863,1,0,0
-0.5154,-0.3606,0.8252,-5.2901,2.687,-0.8931,1,0,0
-0.5225,-0.363,0.8062,0.1985,2.9847,-1.1069,1,0,0
-0.521,-0.3521,0.7991,4.2977,2.313,-0.8626,1,0,0
-0.5254,-0.3328,0.8037,6.0763,1.7939,-1.0153,1,0,0
-0.5342,-0.3086,0.7935,4.6641,0.4275,-1.1527,1,0,0
-0.5247,-0.3008,0.8015,0.7863,-0.2137,-1.3588,1,0,0
-0.5178,-0.3064,0.8123,-3.229,-0.5115,-1.2519,1,0,0
-0.5176,-0.3359,0.8223,-4.8321,-0.1221,-1.2672,1,0,0
-0.5073,-0.3633,0.8362,-3.313,1.2214,-0.5954,1,0,0
-0.5027,-0.3513,0.8428,-1.2901,3.2214,2.2214,1,0,0
-0.4976,-0.3323,0.8508,-1.1679,6.3282,4.0916,1,0,0
-0.4963,-0.3257,0.8733,-3.6718,10.6718,4.8626,1,0,0
-0.4919,-0.3159,0.8794,-8.7252,15.687,5.7786,1,0,0
-0.4866,-0.334,0.8906,-14.0382,23.0229,7.5496,1,0,0
-0.4961,-0.3413,0.9058,-17.7328,30.3435,8.7252,1,0,0
-0.5037,-0.3433,0.895,-22.2061,37.0229,11.4962,1,0,0
-0.5117,-0.3557,0.8806,-25.2595,42.6794,14.0458,1,0,0
-0.5,-0.3604,0.8796,-29.6412,47.8397,18.4275,1,0,0
-0.5391,-0.3713,0.832,-31.1756,52.3511,23.4198,1,0,0
-0.5659,-0.3767,0.7876,-31.5344,52.6947,25.8473,1,0,0
-0.5952,-0.3528,0.7563,-28.5191,49.0076,23.6641,1,0,0
-0.6055,-0.3318,0.7195,-25.3817,43.2748,18.5191,1,0,0
-0.5762,-0.3345,0.7219,-24.7099,42.2214,20.916,1,0,0
-0.6436,-0.334,0.6938,-25.2901,41.3359,14.9313,1,0,0
-0.6807,-0.3525,0.6807,-20.9008,31.5954,12.5954,1,0,0
-0.625,-0.3242,0.6519,-18.0229,28.2214,11.3664,1,0,0
-0.6602,-0.3057,0.6411,-16.4046,21.4122,9.4504,1,0,0
-0.655,-0.2874,0.6323,-15.7939,14.9847,9.9313,1,0,0
-0.6467,-0.271,0.6184,-15.9847,9.4198,5.9389,1,0,0
-0.679,-0.2896,0.6267,-13.771,1.3359,0.7634,1,0,0
-0.6697,-0.2964,0.6204,-10.8397,-6.9313,-3.7557,1,0,0
-0.6465,-0.2949,0.6279,-8.8168,-14.2366,-6.9924,1,0,0
-0.6304,-0.2769,0.6641,-9.5802,-17.7176,-9.8244,1,0,0
-0.6094,-0.3262,0.6604,-12.1221,-19.8168,-12.229,1,0,0
-0.5991,-0.3772,0.6831,-9.9771,-19.6031,-11.8244,1,0,0
-0.6089,-0.3601,0.7178,-8.2519,-18.687,-11.6565,1,0,0
-0.6064,-0.376,0.7163,-8.626,-17.2824,-8.1527,1,0,0
-0.6006,-0.3977,0.7292,-6.5038,-16.4885,-5.9542,1,0,0
-0.5925,-0.4172,0.7478,-2.5573,-14.626,-4.0229,1,0,0
-0.5959,-0.4124,0.7449,1.8321,-13.1221,-3.5115,1,0,0
-0.5994,-0.3997,0.7356,5.2595,-13.0458,-3.4351,1,0,0
-0.5986,-0.3828,0.7402,5.6412,-13.5954,-2.5954,1,0,0
-0.594,-0.366,0.7571,3.7863,-14.0916,-2.0,0,0,0
-0.5769,-0.3682,0.7683,-0.0534,-12.6031,-0.7634,0,0,0
-0.575,-0.3552,0.7866,-4.2672,-9.6336,-0.374,0,0,0
-0.583,-0.3767,0.7839,-6.4122,-6.2901,-1.542,0,0,0
-0.5833,-0.3906,0.7695,-4.9618,-5.145,-0.9084,0,0,0
-0.5935,-0.3728,0.7625,-3.3511,-5.0305,-0.6412,0,0,0
-0.5928,-0.3718,0.7512,-3.0305,-5.4656,-0.4122,0,0,0
-0.5864,-0.3721,0.7512,-1.0382,-5.771,1.3206,0,0,0
-0.5874,-0.3538,0.7461,0.1145,-6.5725,0.9313,0,0,0
-0.585,-0.3325,0.7502,-1.2061,-5.7176,0.1679,0,0,0
-0.582,-0.3311,0.7546,-3.0305,-5.2595,-0.3969,0,0,0
-0.5879,-0.3308,0.749,-5.0305,-4.4656,-1.0458,0,0,0
-0.5881,-0.3472,0.7378,-5.8321,-5.084,-1.916,0,0,0
-0.5859,-0.3584,0.7417,-5.0,-5.8626,-1.9618,0,0,0
-0.5942,-0.3655,0.7427,-3.8702,-7.0916,-1.6489,0,0,0
-0.5842,-0.3708,0.7522,-1.4885,-8.0687,-1.771,0,0,0
-0.5674,-0.3726,0.7625,0.5496,-6.4885,-2.1298,0,0,0
-0.5562,-0.3921,0.7898,2.313,-2.084,-0.542,0,0,0
-0.5537,-0.3845,0.7927,3.0992,3.145,2.1756,0,0,0
-0.5691,-0.3811,0.7759,3.7328,6.9008,3.9389,0,0,0
-0.5867,-0.3757,0.7573,4.7634,7.0763,5.1679,0,0,0
-0.5852,-0.3645,0.7625,3.5649,6.4122,5.1527,0,0,0
-0.5752,-0.397,0.7786,3.8092,7.0534,6.8321,0,0,0
-0.5659,-0.3665,0.7876,2.6412,9.8473,10.5649,0,0,0
-0.5696,-0.345,0.7937,-0.5878,12.5725,12.8244,0,0,0
-0.5857,-0.3274,0.7676,-4.6336,13.8702,12.084,0,0,0
-0.5881,-0.3506,0.7754,-9.2519,14.0305,10.3435,0,0,0
-0.5862,-0.364,0.7791,-11.1527,16.5114,10.7405,0,0,0
-0.5957,-0.394,0.7888,-8.6489,18.626,10.9466,0,0,0
-0.5955,-0.3801,0.7708,-4.2214,20.2901,11.6336,0,0,0
-0.6147,-0.3484,0.7366,-0.8779,19.8626,9.9466,0,0,0
-0.6309,-0.3274,0.6948,0.3435,16.9389,7.2595,1,0,0
-0.6348,-0.3145,0.6838,-0.5191,12.6031,3.8626,1,0,0
-0.6067,-0.343,0.7026,-1.9466,11.3893,0.9389,1,0,0
-0.6362,-0.301,0.6987,-3.9008,10.5115,3.5267,1,0,0
-0.615,-0.3108,0.6987,-6.1298,8.4046,2.2443,1,0,0
-0.6172,-0.3181,0.6973,-6.7328,8.1527,2.916,1,0,0
-0.6367,-0.3149,0.6919,-7.145,6.6641,0.7252,1,0,0
-0.6375,-0.3242,0.686,-6.4962,3.8473,-0.3664,1,0,0
-0.6348,-0.3252,0.6953,-6.4046,1.3893,-2.2977,1,0,0
-0.6318,-0.3345,0.6902,-6.374,-0.855,-3.7252,1,0,0
-0.6257,-0.3391,0.6956,-6.9618,-2.8397,-4.1298,1,0,0
-0.6094,-0.3513,0.7219,-8.3282,-1.9924,-2.7481,1,0,0
-0.6143,-0.3506,0.7273,-7.9237,0.2061,-2.9313,1,0,0
-0.6196,-0.386,0.7102,-6.3969,0.5878,-2.2977,1,0,0
-0.6272,-0.3723,0.7041,-4.2061,-1.0763,-1.6947,1,0,0
-0.635,-0.3625,0.7036,-3.3511,-3.0,-1.916,1,0,0
-0.6323,-0.3782,0.7126,-3.4656,-4.8626,-1.2748,1,0,0
-0.6104,-0.3679,0.717,-4.0076,-5.3817,1.3511,1,0,0
-0.6042,-0.3711,0.7295,-5.458,-4.8855,2.7481,1,0,0
-0.6077,-0.3633,0.7375,-6.8702,-3.0229,3.9695,1,0,0
-0.613,-0.3589,0.7393,-8.145,-1.4733,3.4962,1,0,0
-0.627,-0.3525,0.7217,-9.2214,-1.2901,2.1832,1,0,0
-0.6238,-0.3547,0.7222,-10.3282,-1.8244,1.6107,1,0,0
-0.6262,-0.3643,0.7161,-9.3282,-2.1298,1.2672,1,0,0
-0.6152,-0.3699,0.717,-7.1603,-2.6947,2.0611,1,0,0
-0.6174,-0.3586,0.7251,-5.1756,-1.916,1.8244,1,0,0
-0.6196,-0.3696,0.7268,-2.7252,-1.1756,1.9695,1,0,0
-0.6196,-0.356,0.7236,0.7481,-0.5725,1.9084,1,0,0
-0.6233,-0.3254,0.717,1.8321,-0.8702,0.4809,1,0,0
-0.6191,-0.3208,0.7217,0.4275,-1.0687,-0.2595,1,0,0
-0.6189,-0.3191,0.7214,-0.5649,-1.1985,-0.5038,1,0,0
-0.6248,-0.3325,0.7295,-2.6031,-0.8779,-1.458,1,0,0
-0.616,-0.3416,0.7275,-3.2901,-0.1908,-1.2595,1,0,0
-0.6218,-0.3452,0.7192,-3.7557,-0.1679,-1.4733,1,0,0
-0.6145,-0.3625,0.7314,-4.4198,-0.3282,-1.9389,1,0,0
-0.6121,-0.3848,0.7324,-3.5038,1.3511,-1.3664,1,0,0
-0.6155,-0.387,0.7327,-1.5573,2.229,-0.0153,1,0,0
-0.6233,-0.3696,0.7146,-0.0458,1.9389,0.1374,1,0,0
-0.6274,-0.3562,0.7085,0.1374,0.8397,-1.1221,1,0,0
-0.6304,-0.3569,0.6968,-0.2824,-1.4122,-1.855,1,0,0
-0.6299,-0.3582,0.7019,-1.0458,-3.0,-2.0992,1,0,0
-0.6294,-0.363,0.7009,-0.7023,-4.1603,-1.855,1,0,0
-0.6213,-0.364,0.7012,0.2901,-5.8931,-2.1527,1,0,0
-0.6223,-0.353,0.6992,1.0763,-7.0916,-2.5649,1,0,0
-0.6213,-0.345,0.7065,1.5191,-8.4962,-3.0687,1,0,0
-0.6306,-0.342,0.6968,1.1069,-10.4885,-4.0382,1,0,0
-0.6311,-0.3315,0.698,0.9542,-13.2595,-4.7252,1,0,0
-0.6223,-0.3413,0.7007,1.3511,-15.9847,-7.0763,1,0,0
-0.6184,-0.3472,0.7021,3.3206,-17.5191,-8.5267,1,0,0
-0.6099,-0.3384,0.72,3.6565,-18.2443,-9.1298,1,0,0
-0.5989,-0.342,0.73,4.4962,-17.7939,-9.9237,1,0,0
-0.6047,-0.344,0.7168,5.626,-17.8321,-11.3588,1,0,0
-0.6057,-0.345,0.72,7.4046,-18.9008,-12.8168,1,0,0
-0.5952,-0.3545,0.7397,8.9695,-20.145,-14.8397,1,0,0
-0.5801,-0.3403,0.7551,8.8702,-18.9237,-14.6412,1,0,0
-0.5669,-0.3611,0.7803,8.2137,-15.2824,-12.2443,1,0,0
-0.5725,-0.3528,0.7747,10.3359,-12.313,-8.855,1,0,0
-0.5771,-0.3584,0.7615,10.7939,-10.7252,-7.9618,1,0,0
-0.5818,-0.323,0.7563,7.8626,-11.1603,-9.3664,1,0,0
-0.5767,-0.3542,0.76,6.374,-11.0076,-9.7252,1,0,0
-0.5747,-0.3809,0.7712,7.1985,-10.9389,-8.8473,1,0,0
-0.5564,-0.3733,0.7837,9.3282,-9.2901,-7.9008,1,0,0
-0.563,-0.3691,0.7837,11.6107,-7.1527,-8.7252,1,0,0
-0.5657,-0.3801,0.7805,13.2595,-5.229,-9.2214,1,0,0
-0.5576,-0.3462,0.7847,12.4962,-2.7863,-8.8473,1,0,0
-0.5662,-0.3257,0.7783,7.1069,-1.916,-7.1069,1,0,0
-0.5713,-0.3479,0.7727,3.1832,-2.3588,-7.6641,1,0,0
-0.5632,-0.3652,0.7808,0.5496,-2.0382,-6.2824,1,0,0
-0.5508,-0.3955,0.7786,0.542,-1.0458,-3.771,1,0,0
-0.5669,-0.385,0.7749,2.9618,-0.5267,-0.7786,1,0,0
-0.5657,-0.3633,0.7773,3.7099,-0.6641,0.2061,1,0,0
-0.5601,-0.3589,0.7703,3.4122,0.0611,0.626,1,0,0
-0.5684,-0.3721,0.7698,3.7023,-0.3969,1.6336,1,0,0
-0.5718,-0.3528,0.7693,4.1756,-0.6107,1.8473,1,0,0
-0.5588,-0.3406,0.7734,2.4504,-0.0153,1.5802,1,0,0
-0.5588,-0.3394,0.7695,0.1374,0.9466,0.9237,1,0,0
-0.5662,-0.3574,0.7778,0.1145,1.0534,1.1908,1,0,0
-0.5693,-0.3601,0.7712,0.8092,1.7557,1.6183,1,0,0
-0.5747,-0.3569,0.7651,2.6794,1.313,2.1908,1,0,0
-0.5718,-0.3501,0.7617,3.855,0.1603,3.1298,1,0,0
-0.5647,-0.3337,0.7539,4.7023,-0.4351,2.8321,1,0,0
-0.5703,-0.3203,0.7595,2.9847,-0.9847,1.5725,1,0,0
-0.5715,-0.3091,0.7578,-0.2061,-1.4504,0.4504,1,0,0
-0.5691,-0.3027,0.7617,-4.5344,-2.0153,-0.8244,1,0,0
-0.5669,-0.3081,0.7686,-8.2824,-2.0229,-1.5954,1,0,0
-0.5732,-0.3286,0.7712,-10.7939,-2.2748,-2.313,1,0,0
-0.5728,-0.3411,0.7705,-11.2824,-2.6641,-2.9313,1,0,0
-0.5566,-0.3616,0.7959,-10.771,-0.7481,-3.5115,1,0,0
-0.5452,-0.4094,0.8135,-7.4198,3.2443,-2.0382,1,0,0
-0.54,-0.4019,0.8123,-1.2519,8.5191,2.7023,1,0,0
-0.5615,-0.3657,0.7791,4.1679,12.374,3.7557,1,0,0
-0.5796,-0.3335,0.7563,5.3511,11.1756,2.6489,1,0,0
-0.5942,-0.3213,0.7417,3.9847,8.3206,1.1603,1,0,0
-0.5967,-0.3362,0.7329,3.4962,4.0,-0.2672,1,0,0
-0.5959,-0.3318,0.7256,0.8473,0.0458,-0.1756,1,0,0
-0.5938,-0.3201,0.7317,-1.6183,-3.7863,-1.0305,1,0,0
-0.5815,-0.3303,0.738,-4.5878,-5.4885,-1.3282,1,0,0
-0.5667,-0.3372,0.761,-5.8779,-5.3053,-1.3664,1,0,0
-0.5569,-0.3496,0.7808,-5.9847,-3.5649,-1.7099,1,0,0
-0.5615,-0.356,0.7749,-4.9466,-1.3282,-1.3359,1,0,0
-0.5725,-0.3535,0.7756,-4.5344,-0.7863,-2.0382,1,0,0
-0.5774,-0.3389,0.7627,-5.1908,-1.0305,-2.6183,1,0,0
-0.5771,-0.3425,0.7661,-6.542,-2.4733,-2.6565,1,0,0
-0.572,-0.3352,0.781,-7.8931,-2.8855,-3.7557,1,0,0
-0.5681,-0.3369,0.7817,-8.3511,-2.0153,-5.8397,1,0,0
-0.563,-0.355,0.7649,-9.0305,-2.3511,-5.5725,1,0,0
-0.5642,-0.353,0.7747,-9.0305,-1.2977,-5.5878,1,0,0
-0.5706,-0.3599,0.7664,-7.3511,0.9466,-6.5115,1,0,0
-0.5728,-0.3799,0.7693,-3.8855,1.7405,-6.4885,1,0,0
-0.5679,-0.3665,0.7563,-0.771,1.4809,-4.5573,1,0,0
-0.5708,-0.3472,0.7422,0.2595,0.3969,-4.1527,1,0,0
-0.5767,-0.3496,0.7527,0.1603,-0.458,-3.6641,1,0,0
-0.5693,-0.3545,0.7478,-1.0534,-1.7481,-2.229,1,0,0
-0.5723,-0.3459,0.7544,-2.2061,-2.2672,-1.3588,1,0,0
-0.564,-0.3557,0.7581,-3.1908,-1.626,-1.8931,1,0,0
-0.5674,-0.3684,0.7644,-2.5878,-1.1985,-2.5573,1,0,0
-0.5608,-0.3674,0.7649,-0.9924,-0.6489,-1.8321,1,0,0
-0.5728,-0.3777,0.7673,0.5115,-0.2977,-1.8473,1,0,0
-0.5703,-0.3796,0.7603,2.1069,-0.8473,-0.7863,1,0,0
-0.5681,-0.3486,0.7673,1.8321,-0.8702,-0.8168,1,0,0
-0.5625,-0.3457,0.762,0.1221,-0.8244,-1.4046,1,0,0
-0.5645,-0.3511,0.7676,-0.5573,-0.3969,-1.9771,1,0,0
-0.5605,-0.355,0.7849,-1.9313,0.5191,-2.229,1,0,0
-0.5627,-0.3635,0.782,-2.7939,2.0611,-1.3206,1,0,0
-0.5686,-0.3643,0.78,-2.7328,3.1298,-1.145,1,0,0
-0.5645,-0.3596,0.7827,-2.7863,3.4275,-1.4962,1,0,0
-0.563,-0.3735,0.7769,-3.0916,4.7176,-0.8473,1,0,0
-0.5693,-0.3716,0.7668,-1.6565,5.4427,0.0916,1,0,0
-0.572,-0.3503,0.761,-1.1221,4.7786,-0.458,1,0,0
-0.5728,-0.3491,0.7534,-1.4046,3.8397,-1.2977,1,0,0
-0.5706,-0.3508,0.7661,-2.0763,2.9542,-1.5802,1,0,0
-0.5723,-0.3545,0.7637,-3.0763,2.9237,-0.8855,1,0,0
-0.5674,-0.3472,0.7686,-3.9542,4.1221,-1.1527,1,0,0
-0.5688,-0.3689,0.7837,-4.1985,5.8779,-1.4351,1,0,0
-0.5669,-0.3679,0.7722,-3.1069,7.0229,-0.8321,1,0,0
-0.573,-0.364,0.7637,-1.8779,7.771,-1.5878,1,0,0
-0.5798,-0.3684,0.7666,0.5191,7.7634,-2.4275,1,0,0
-0.5811,-0.3677,0.7534,2.7252,7.2824,-2.7099,1,0,0
-0.5806,-0.3564,0.7527,3.9084,6.9695,-2.8473,1,0,0
-0.5796,-0.3484,0.7542,3.8473,6.5038,-3.6183,1,0,0
-0.5771,-0.3503,0.7566,4.2366,6.8473,-3.6947,1,0,0
-0.575,-0.3486,0.7603,3.916,7.7023,-3.8702,1,0,0
-0.5691,-0.353,0.7664,2.9466,8.9542,-3.8092,1,0,0
-0.5796,-0.3503,0.7615,3.0534,10.374,-2.9771,1,0,0
-0.5845,-0.3621,0.7542,2.8473,10.4122,-2.4733,1,0,0
-0.6035,-0.3606,0.7437,1.7863,12.6489,-2.0,1,0,0
-0.5803,-0.3491,0.7502,3.1756,10.1374,-1.9084,1,0,0
-0.573,-0.3679,0.7661,4.7939,10.313,-1.626,1,0,0
-0.5747,-0.3337,0.7737,5.4504,12.6336,-2.0916,1,0,0
-0.5837,-0.3376,0.7603,4.1374,14.9389,-3.3893,1,0,0
-0.5957,-0.3438,0.7556,4.4351,15.9618,-4.9847,1,0,0
-0.5901,-0.332,0.7476,5.0534,16.8779,-7.6107,1,0,0
-0.5933,-0.3528,0.7439,7.4962,16.7863,-10.1145,1,0,0
-0.595,-0.3596,0.7415,9.3359,16.3817,-9.3435,1,0,0
-0.6091,-0.3599,0.7224,10.8473,16.4427,-7.9008,1,0,0
-0.6082,-0.3308,0.7246,10.9924,14.9771,-7.4351,1,0,0
-0.6179,-0.333,0.7141,11.8702,13.1298,-10.0153,1,0,0
-0.6079,-0.3245,0.7117,11.0916,11.3511,-11.7405,1,0,0
-0.6096,-0.3367,0.7136,9.7557,10.4351,-10.6336,1,0,0
-0.6228,-0.3545,0.7053,8.8321,9.0916,-9.2901,1,0,0
-0.603,-0.3533,0.7271,9.687,8.3435,-8.0229,1,0,0
-0.6099,-0.3428,0.7202,10.4962,7.9084,-8.687,1,0,0
-0.6182,-0.3315,0.7178,9.9237,7.374,-9.8397,1,0,0
-0.6155,-0.3271,0.7124,6.9466,6.3206,-8.9084,1,0,0
-0.6184,-0.3457,0.7109,3.3053,4.5802,-7.2366,1,0,0
-0.6128,-0.3564,0.7209,1.2214,3.2672,-5.5725,1,0,0
-0.6038,-0.3745,0.7356,2.3511,3.1069,-5.7176,1,0,0
-0.6069,-0.3608,0.7346,4.0229,3.626,-6.4809,1,0,0
-0.6116,-0.356,0.7324,4.1298,3.4427,-5.9084,1,0,0
-0.6143,-0.3599,0.7268,2.9771,2.313,-5.0,1,0,0
-0.6155,-0.3618,0.7219,1.0611,1.0382,-3.4962,1,0,0
-0.6184,-0.3604,0.7195,-0.1832,-0.5496,-1.7481,1,0,0
-0.6155,-0.3557,0.7205,-1.4733,-1.2214,-1.0153,1,0,0
-0.6062,-0.3481,0.7224,-2.0687,-1.4733,-1.5725,1,0,0
-0.606,-0.3574,0.7163,-1.2519,-1.2137,-2.0382,1,0,0
-0.615,-0.3508,0.7136,-0.4198,-2.084,-2.2595,1,0,0
-0.6108,-0.354,0.7175,0.1832,-2.8244,-1.5267,1,0,0
-0.6152,-0.3569,0.7217,0.1603,-3.5496,-0.229,1,0,0
-0.6145,-0.3455,0.7275,0.1069,-4.1069,0.9313,1,0,0
-0.6104,-0.3416,0.738,-0.855,-4.1908,1.4198,1,0,0
-0.6113,-0.3369,0.7375,-1.5038,-4.2061,1.0763,1,0,0
-0.6057,-0.3411,0.7505,-1.6107,-4.1221,1.0076,1,0,0
-0.6069,-0.3474,0.7473,-0.2214,-3.4809,0.6183,1,0,0
-0.6033,-0.3411,0.7498,0.313,-2.8092,-0.2519,1,0,0
-0.6008,-0.3364,0.7505,0.145,-2.1298,0.0382,1,0,0
-0.6001,-0.3391,0.7515,0.1603,-1.084,-0.4198,1,0,0
-0.6062,-0.3435,0.7463,1.4733,-0.7023,-0.7557,1,0,0
-0.6155,-0.3359,0.7375,2.0,-1.3817,-1.2214,1,0,0
-0.6167,-0.3347,0.7378,1.5802,-2.6718,-1.1221,1,0,0
-0.6182,-0.3411,0.7393,1.9695,-3.4733,-0.8092,1,0,0
-0.6084,-0.3582,0.7356,2.1908,-4.3359,1.0,1,0,0
-0.5972,-0.3538,0.7461,3.687,-4.0305,2.7252,1,0,0
-0.6084,-0.3455,0.7134,5.6718,-4.1069,2.3435,1,0,0
-0.5801,-0.3794,0.7424,7.7405,-2.1145,-1.8702,1,0,0
-0.6277,-0.2883,0.7361,6.7176,-1.542,-0.9237,1,0,0
-0.5981,-0.3196,0.7446,2.2366,-3.6565,-2.1756,1,0,0
-0.5967,-0.3193,0.7441,-0.855,-3.2214,-0.8321,1,0,0
-0.6003,-0.3235,0.7566,-4.1221,-3.3359,-2.3282,1,0,0
-0.6035,-0.3252,0.7622,-6.4885,-3.2061,-1.1221,1,0,0
-0.5942,-0.3311,0.7551,-8.3359,-2.916,-1.2977,1,0,0
-0.5942,-0.3396,0.752,-9.2672,-2.3435,-1.3893,1,0,0
-0.5886,-0.3689,0.7683,-7.9084,-0.1908,-1.3893,1,0,0
-0.5986,-0.363,0.7583,-4.0153,0.7252,-0.4809,1,0,0
-0.6057,-0.3408,0.748,-2.542,0.7557,-0.7099,1,0,0
-0.6089,-0.332,0.7432,-2.9847,0.3664,-0.9847,1,0,0
-0.6033,-0.324,0.7419,-4.2214,0.0992,-1.4122,1,0,0
-0.5991,-0.3286,0.7312,-5.4046,0.0229,-2.7557,1,0,0
-0.6025,-0.3235,0.7346,-7.0534,-0.6031,-2.6718,1,0,0
-0.6038,-0.3271,0.7434,-8.9313,-0.9618,-2.7405,1,0,0
-0.6011,-0.3389,0.7502,-9.0229,-0.1374,-3.1679,1,0,0
-0.5959,-0.354,0.7515,-7.9466,0.542,-2.5115,1,0,0
-0.5984,-0.3745,0.7563,-4.0534,1.1603,-1.4733,1,0,0
-0.6084,-0.3589,0.7373,-0.5725,1.0458,-0.7023,1,0,0
-0.6108,-0.3359,0.7317,-0.1221,-0.9618,-0.6565,1,0,0
-0.6069,-0.3318,0.7307,-1.0,-1.6336,-0.9466,1,0,0
-0.604,-0.325,0.719,-2.8931,-2.3206,-1.4962,1,0,0
-0.5989,-0.334,0.7146,-3.5344,-2.5725,-2.7481,1,0,0
-0.5928,-0.3455,0.7354,-3.0611,-2.229,-3.8015,1,0,0
-0.5981,-0.3589,0.7371,-2.0,-2.0534,-3.771,1,0,0
-0.5984,-0.3638,0.7356,0.9313,-1.3969,-3.0992,1,0,0
-0.5989,-0.3433,0.7429,1.3817,-1.4885,-3.458,1,0,0
-0.5964,-0.3401,0.7463,1.4122,-1.6718,-4.626,1,0,0
-0.6035,-0.3508,0.7424,2.0229,-1.8397,-4.4962,1,0,0
-0.6096,-0.343,0.741,1.7786,-3.374,-4.4733,1,0,0
-0.6025,-0.3384,0.7434,1.1298,-4.6107,-4.374,1,0,0
-0.5959,-0.3425,0.7429,1.0687,-4.7481,-5.0992,1,0,0
-0.5918,-0.3337,0.741,0.9924,-4.7328,-5.8626,1,0,0
-0.592,-0.3423,0.7505,1.0611,-4.4809,-7.0763,1,0,0
-0.5935,-0.3481,0.7463,2.0687,-3.9695,-5.7863,1,0,0
-0.5928,-0.3628,0.7454,2.6947,-4.1221,-4.5954,1,0,0
-0.5969,-0.3535,0.7458,3.9771,-4.1832,-3.6947,1,0,0
-0.595,-0.3413,0.749,4.3893,-5.0763,-3.8168,1,0,0
-0.5896,-0.3418,0.7532,3.1985,-5.0153,-4.0,1,0,0
-0.5796,-0.3413,0.7585,1.6412,-4.3969,-3.4198,1,0,0
-0.5774,-0.345,0.7698,-0.1985,-3.3969,-2.8092,1,0,0
-0.5859,-0.3523,0.7566,-1.6336,-2.4198,-2.6565,1,0,0
-0.5886,-0.3521,0.75,-1.9237,-2.5954,-2.8626,1,0,0
-0.5835,-0.3523,0.7493,-2.5496,-2.7252,-3.0458,1,0,0
-0.585,-0.3594,0.7532,-2.1756,-3.1603,-2.9924,1,0,0
-0.5835,-0.3525,0.7581,-0.0076,-2.9389,-4.8244,1,0,0
-0.5837,-0.3469,0.7517,1.9084,-2.6718,-6.4427,1,0,0
-0.5823,-0.3545,0.76,3.5038,-2.4885,-7.8931,1,0,0
-0.5847,-0.3567,0.7708,4.0076,-1.374,-6.6565,1,0,0
-0.5852,-0.3572,0.7732,2.7481,0.542,-3.8931,1,0,0
-0.5942,-0.3445,0.7468,1.0076,-0.0153,-0.6107,1,0,0
-0.5916,-0.3269,0.751,-1.5725,-1.9847,-0.3435,1,0,0
-0.5857,-0.3369,0.759,-4.2366,-2.9924,-0.7557,1,0,0
-0.584,-0.3523,0.7573,-4.3435,-3.3817,-0.458,1,0,0
-0.5769,-0.3579,0.7529,-3.771,-3.3893,-0.5725,1,0,0
-0.5684,-0.3643,0.7698,-2.0611,-1.771,-0.8015,1,0,0
-0.5693,-0.3733,0.7627,0.4962,0.626,-0.4733,1,0,0
-0.5842,-0.3611,0.7588,3.0458,1.7786,0.6794,1,0,0
-0.5913,-0.3455,0.7336,4.1756,0.2901,1.0382,1,0,0
-0.5906,-0.3416,0.7385,2.8015,-1.5878,-0.1221,1,0,0
-0.5862,-0.3398,0.7515,1.2366,-2.7328,0.9542,1,0,0
-0.5808,-0.3445,0.7476,-0.3511,-3.9466,1.6794,1,0,0
-0.5796,-0.3435,0.7688,-1.3511,-3.7099,2.1069,1,0,0
-0.5857,-0.3564,0.7595,-0.4275,-3.626,3.687,1,0,0
-0.5789,-0.345,0.7537,1.2824,-3.6794,3.6183,1,0,0
-0.5818,-0.3398,0.7607,1.8626,-3.1679,1.7939,1,0,0
-0.5967,-0.3625,0.7358,3.4427,-3.9771,2.3206,1,0,0
-0.5745,-0.375,0.7637,5.7023,-3.7252,0.1527,1,0,0
-0.6006,-0.3135,0.7554,4.6947,-3.7786,0.4656,1,0,0
-0.5769,-0.3259,0.7776,2.8473,-4.3511,0.1679,1,0,0
-0.5759,-0.3279,0.781,1.4962,-3.5496,0.3511,1,0,0
-0.575,-0.3301,0.7883,-0.0687,-3.0611,-0.9924,1,0,0
-0.5718,-0.3245,0.7813,-0.5115,-2.1069,-1.0382,1,0,0
-0.5703,-0.3198,0.781,-1.9618,-1.0611,-1.5802,1,0,0
-0.5708,-0.3159,0.7849,-5.1908,-0.1527,-2.0,1,0,0
-0.5742,-0.3215,0.7832,-8.8931,1.2443,-2.8168,1,0,0
-0.5786,-0.3313,0.7798,-11.5038,2.6031,-3.8626,1,0,0
-0.5762,-0.345,0.7761,-12.0076,2.9618,-4.0382,1,0,0
-0.5842,-0.3469,0.7549,-11.8702,2.2214,-3.8626,1,0,0
-0.585,-0.3367,0.7566,-11.1069,1.084,-4.4504,1,0,0
-0.5793,-0.353,0.749,-10.687,0.2748,-4.0992,1,0,0
-0.5896,-0.3384,0.7456,-10.4275,-0.2672,-4.2214,1,0,0
-0.5857,-0.3271,0.7441,-10.145,-0.1069,-5.7099,1,0,0
-0.5779,-0.3345,0.7427,-10.1985,-0.5496,-7.0763,1,0,0
-0.5774,-0.3379,0.7441,-11.2977,-0.8931,-7.0916,1,0,0
-0.5845,-0.3281,0.7581,-12.8397,-1.1069,-7.6565,1,0,0
-0.582,-0.325,0.759,-15.5954,-1.8168,-7.6183,1,0,0
-0.5889,-0.3201,0.7615,-19.6183,-2.4656,-8.0229,1,0,0
-0.5896,-0.3218,0.762,-23.542,-4.1221,-8.1145,1,0,0
-0.5896,-0.3088,0.7578,-28.687,-5.4122,-10.2366,1,0,0
-0.5835,-0.3186,0.7585,-34.4809,-6.4427,-12.374,1,0,0
-0.5718,-0.335,0.7637,-39.4733,-6.3359,-14.0763,1,0,0
-0.5669,-0.3606,0.77,-43.3893,-5.4809,-14.2748,1,0,0
-0.5635,-0.3896,0.7649,-44.8092,-4.6489,-14.0763,1,0,0
-0.5625,-0.427,0.7607,-43.3817,-3.7176,-13.771,1,0,0
-0.5522,-0.4417,0.7576,-39.3435,-2.374,-12.6718,1,0,0
-0.5498,-0.4575,0.7561,-33.4427,-0.626,-11.9008,0,0,0
-0.55,-0.4619,0.7483,-27.3435,1.229,-10.9313,0,0,0
-0.5469,-0.4502,0.7324,-22.4198,2.8092,-10.3588,0,0,0
-0.5552,-0.447,0.7241,-19.2519,4.458,-10.4198,0,0,0
-0.5654,-0.4492,0.7095,-17.4122,4.8244,-9.9008,0,0,0
-0.5613,-0.4553,0.6992,-15.8931,4.4122,-8.8473,0,0,0
-0.5696,-0.4634,0.6831,-13.6718,2.6412,-7.542,0,0,0
-0.5669,-0.4534,0.6833,-12.3053,0.5267,-5.6947,0,0,0
-0.5669,-0.4492,0.6841,-11.8626,-1.0992,-5.2901,0,0,0
-0.563,-0.4509,0.6914,-11.4962,-2.0687,-4.9771,0,0,0
-0.5586,-0.4529,0.6938,-11.0763,-2.8168,-4.2672,0,0,0
-0.5559,-0.4473,0.696,-10.7176,-2.3282,-4.5344,0,0,0
-0.551,-0.4729,0.7102,-9.3969,-2.0763,-4.374,0,0,0
-0.5527,-0.4712,0.7058,-6.6489,-1.4198,-4.1145,0,0,0
-0.5581,-0.4729,0.7051,-4.2519,-1.9466,-3.0382,0,0,0
-0.5576,-0.4631,0.7139,-2.6794,-2.0534,-2.1069,0,0,0
-0.5574,-0.4458,0.7124,-2.0687,-2.0534,-1.4504,0,0,0
-0.5583,-0.4475,0.719,-2.6031,-2.0763,-1.9771,0,0,0
-0.5583,-0.4426,0.7207,-2.626,-2.4198,-2.1832,0,0,0
-0.5635,-0.4473,0.7185,-3.1298,-2.9771,-2.5038,0,0,0
-0.5618,-0.4551,0.7158,-3.7328,-3.6565,-1.8321,0,0,0
-0.5566,-0.4463,0.7161,-3.3893,-3.7252,-1.3435,0,0,0
-0.552,-0.4551,0.7275,-3.9389,-3.6794,-1.8244,0,0,0
-0.5469,-0.4595,0.7246,-2.7939,-3.0916,-1.2443,0,0,0
-0.5471,-0.4495,0.7302,-2.7557,-1.4962,-1.3969,0,0,0
-0.553,-0.4478,0.7234,-3.0687,-1.4504,-1.5038,0,0,0
-0.5571,-0.4509,0.7268,-2.9695,-1.5725,-1.5725,0,0,0
-0.5554,-0.4504,0.7141,-2.8092,-1.771,-1.9771,0,0,0
-0.5574,-0.4614,0.7119,-2.8626,-2.3435,-2.2977,0,0,0
-0.5562,-0.4539,0.7112,-2.1069,-2.8855,-1.5954,0,0,0
-0.5535,-0.4465,0.7063,-2.0992,-3.9237,-1.4656,0,0,0
-0.5547,-0.4595,0.7231,-1.8168,-4.8931,-1.8168,0,0,0
-0.5513,-0.4714,0.7317,0.0153,-4.3282,-0.4962,0,0,0
-0.5466,-0.4619,0.7351,1.8473,-3.9924,0.2748,0,0,0
-0.5471,-0.4387,0.7537,1.1908,-3.4504,0.0611,0,0,0
-0.5391,-0.4338,0.7595,-0.2748,-2.2519,-0.1221,0,0,0
-0.5432,-0.4363,0.76,-2.2977,-0.0687,-1.2824,0,0,0
-0.5491,-0.4556,0.751,-2.5878,1.084,-1.3893,0,0,0
-0.5542,-0.4395,0.7441,-2.4962,1.4198,-1.0076,0,0,0
-0.5562,-0.4397,0.7292,-3.2595,1.0305,-2.3359,0,0,0
-0.5547,-0.4475,0.7234,-2.7557,0.4656,-2.8168,0,0,0
-0.5522,-0.4546,0.7151,-0.9542,0.0611,-2.8092,0,0,0
-0.5515,-0.4392,0.7102,-0.145,0.0458,-2.6031,0,0,0
-0.5496,-0.4358,0.7068,-1.1374,-0.2061,-2.8092,0,0,0
-0.5527,-0.437,0.7065,-1.8702,-0.2519,-2.8321,0,0,0
-0.55,-0.4409,0.7056,-2.8931,-0.458,-3.2443,0,0,0
-0.5574,-0.4497,0.6941,-2.855,-1.1374,-3.7099,0,0,0
-0.5522,-0.4556,0.7017,-1.5802,-1.9084,-3.4122,0,0,0
-0.5503,-0.4568,0.7017,-0.458,-2.3511,-3.3359,0,0,0
-0.5437,-0.4685,0.7048,0.4809,-3.0076,-3.0458,0,0,0
-0.5483,-0.4536,0.7144,0.8168,-2.458,-2.1679,0,0,0
-0.5513,-0.4602,0.7048,0.2137,-2.7939,-1.5344,0,0,0
-0.5474,-0.4619,0.7153,-0.4809,-3.4885,-1.4122,0,0,0
-0.5422,-0.4587,0.7229,-1.4275,-3.5878,-1.5115,0,0,0
-0.5452,-0.4722,0.7361,-1.8702,-3.7252,-1.7863,0,0,0
-0.5359,-0.4783,0.7427,-1.6183,-2.4733,-1.2214,0,0,0
-0.5396,-0.4834,0.7563,-1.0229,-1.229,-0.8397,0,0,0
-0.5369,-0.4753,0.7537,-0.374,0.2443,-0.1298,0,0,0
-0.5415,-0.4651,0.749,-0.5344,1.3893,0.1603,0,0,0
-0.543,-0.4636,0.7385,-0.7634,1.3588,0.229,0,0,0
-0.5513,-0.4519,0.7219,-1.8092,0.6031,0.0916,0,0,0
-0.5513,-0.4507,0.7209,-3.2748,-0.0992,0.3664,0,0,0
-0.5471,-0.4546,0.7246,-4.0916,-0.4962,0.1908,0,0,0
-0.5461,-0.4629,0.731,-3.2748,-0.7328,0.3206,0,0,0
-0.5447,-0.4617,0.7212,-2.1069,-0.9237,0.0763,0,0,0
-0.5496,-0.4604,0.7139,-1.1374,-1.3359,0.1985,0,0,0
-0.5518,-0.4602,0.7144,0.0229,-2.0992,0.2519,0,0,0
-0.5483,-0.4463,0.7117,-0.3588,-2.7634,0.0229,0,0,0
-0.5422,-0.4502,0.7195,-1.229,-2.8092,0.6947,0,0,0
-0.5464,-0.4487,0.729,-2.0,-2.4733,0.8015,0,0,0
-0.5447,-0.4504,0.7275,-2.6412,-2.0763,1.084,0,0,0
-0.542,-0.4548,0.7266,-3.0687,-2.2061,0.8626,0,0,0
-0.5508,-0.4585,0.7168,-2.4809,-2.8092,1.084,0,0,0
-0.55,-0.4602,0.7168,-2.1069,-3.3588,1.4046,0,0,0
-0.5479,-0.4609,0.719,-1.0458,-4.1527,1.8931,0,0,0
-0.5503,-0.4556,0.718,-1.0763,-4.9389,3.8092,0,0,0
-0.5447,-0.447,0.7319,-2.084,-5.0229,5.6107,0,0,0
-0.5447,-0.446,0.7183,-3.5802,-5.6107,7.229,0,0,0
-0.5476,-0.4451,0.729,-5.7786,-6.458,7.9008,0,0,0
-0.5481,-0.4514,0.7156,-7.7099,-7.4733,9.4046,0,0,0
-0.5435,-0.4614,0.7229,-9.7863,-8.1985,11.8244,0,0,0
-0.5488,-0.4561,0.7307,-9.1221,-8.6565,11.0458,0,0,0
-0.5364,-0.4592,0.7295,-8.0,-7.6947,8.3588,0,0,0
-0.5315,-0.4543,0.7354,-6.3664,-6.2672,6.7481,0,0,0
-0.5383,-0.4531,0.7341,-6.1603,-4.9924,6.9695,0,0,0
-0.5474,-0.4585,0.7285,-6.6107,-4.771,7.3435,0,0,0
-0.551,-0.4561,0.7251,-6.4809,-4.8244,7.9313,0,0,0
-0.5811,-0.467,0.7134,-6.916,-4.9542,8.542,0,0,0
-0.4363,-0.4331,0.7283,-6.3359,-9.1374,10.9695,0,0,0
-0.5615,-0.4346,0.7151,-7.7023,-10.3435,11.0763,0,0,0
-0.5454,-0.4463,0.7219,-9.0687,-11.2901,11.5802,0,0,0
-0.5459,-0.438,0.7283,-10.1985,-11.5191,11.3435,0,0,0
-0.5391,-0.4431,0.731,-12.771,-11.7176,13.5115,0,0,0
-0.5488,-0.49,0.7214,-13.0916,-12.7405,16.0763,0,0,0
-0.532,-0.4641,0.7358,-10.1908,-13.3817,16.4046,0,0,0
-0.5276,-0.4238,0.7429,-7.7405,-12.0916,13.4733,0,0,0
-0.5337,-0.4395,0.7451,-7.626,-9.0076,9.8626,0,0,0
-0.5247,-0.4358,0.7532,-6.0382,-6.4275,6.1756,0,0,0
-0.5369,-0.429,0.7542,-4.9695,-4.1221,3.3053,0,0,0
-0.5386,-0.4568,0.7422,-3.1145,-3.5344,2.771,0,0,0
-0.5447,-0.4397,0.7402,-1.5649,-3.626,3.3893,0,0,0
-0.5405,-0.4314,0.7388,-2.9389,-3.8779,4.4809,0,0,0
-0.551,-0.427,0.7307,-4.1908,-4.7634,5.3893,0,0,0
-0.5532,-0.4231,0.7334,-6.8092,-6.1374,6.4962,0,0,0
-0.541,-0.4163,0.7209,-10.6107,-7.4656,9.1221,0,0,0
-0.5618,-0.4526,0.7017,-12.8931,-10.2366,11.1756,0,0,0
-0.5388,-0.4492,0.7263,-11.8168,-13.2214,10.5344,0,0,0
-0.5142,-0.4446,0.7485,-9.6641,-11.1908,7.1145,0,0,0
-0.5232,-0.4329,0.7642,-8.3053,-7.6336,3.9008,0,0,0
-0.5249,-0.4441,0.7507,-7.8626,-4.4885,1.7863,0,0,0
-0.5339,-0.4575,0.7373,-6.2901,-2.7557,1.4733,0,0,0
-0.5486,-0.4519,0.7195,-5.2748,-3.1679,2.2366,0,0,0
-0.5505,-0.4634,0.7202,-5.5573,-5.145,3.1908,0,0,0
-0.5469,-0.4548,0.7183,-5.8855,-6.626,5.2748,0,0,0
-0.5374,-0.4575,0.7292,-6.0687,-7.855,6.9771,0,0,0
-0.5269,-0.4319,0.752,-5.626,-7.1985,5.8092,0,0,0
-0.5203,-0.4221,0.7544,-5.2824,-4.4885,2.0458,0,0,0
-0.5178,-0.4304,0.7576,-4.5878,-2.2748,-1.9924,0,0,0
-0.5256,-0.4404,0.7466,-2.8168,0.084,-3.7176,0,0,0
-0.5239,-0.459,0.759,-0.8855,1.9466,-4.1832,0,0,0
-0.5195,-0.4583,0.7798,2.2214,4.6336,-3.6412,0,0,0
-0.5247,-0.4441,0.7744,4.9313,7.2519,-2.9542,0,0,0
-0.5359,-0.4263,0.7676,6.1603,8.687,-2.9695,0,0,0
-0.5444,-0.4263,0.7529,6.084,9.4809,-3.916,0,0,0
-0.54,-0.4209,0.7573,4.4885,9.5344,-3.8092,0,0,0
-0.5454,-0.4263,0.7539,2.7557,9.4275,-4.2137,0,0,0
-0.54,-0.4346,0.7629,0.771,10.6336,-3.6794,0,0,0
-0.5454,-0.4338,0.749,-0.2366,10.9237,-2.7099,0,0,0
-0.5427,-0.4436,0.7444,-1.916,10.4962,-1.8473,0,0,0
-0.542,-0.4426,0.7239,-3.1374,10.3053,-1.7099,0,0,0
-0.5564,-0.4521,0.7136,-4.084,8.6947,-1.2824,0,0,0
-0.5466,-0.4663,0.7156,-3.6641,7.3664,-0.0916,0,0,0
-0.5469,-0.4644,0.7107,-3.229,6.855,0.5802,0,0,0
-0.5535,-0.4617,0.7043,-3.3206,6.2901,1.3817,0,0,0
-0.5569,-0.4563,0.7073,-3.687,5.2366,1.5038,0,0,0
-0.55,-0.4553,0.7144,-3.9008,4.7176,0.9542,0,0,0
-0.5498,-0.4614,0.7068,-2.8473,3.7099,0.0305,0,0,0
-0.562,-0.4568,0.7083,-2.0076,2.7176,-0.7786,0,0,0
-0.5574,-0.4561,0.7102,-1.2748,2.0382,-0.6031,0,0,0
-0.5481,-0.4631,0.7183,0.0611,2.313,-0.3969,0,0,0
-0.5457,-0.4661,0.72,1.7939,3.0305,-0.3511,0,0,0
-0.5396,-0.4509,0.7256,3.6565,4.3664,-0.2137,0,0,0
-0.5569,-0.4475,0.7383,4.313,5.3817,0.0458,0,0,0
-0.562,-0.4377,0.7314,3.9084,6.0229,-0.0382,0,0,0
-0.5581,-0.4331,0.7297,4.0458,5.1908,0.4962,0,0,0
-0.5583,-0.4202,0.7241,2.5878,5.2748,0.2366,0,0,0
-0.5657,-0.4297,0.7271,1.9237,4.7939,-0.4656,0,0,0
-0.5579,-0.4185,0.7229,1.5496,4.5954,-1.5954,0,0,0
-0.561,-0.4236,0.729,1.0153,5.4504,-2.8321,0,0,0
-0.5698,-0.4355,0.7214,1.7328,5.5573,-3.7481,0,0,0
-0.5674,-0.4463,0.7266,3.1374,4.7939,-3.5038,0,0,0
-0.5615,-0.4541,0.7346,4.8015,3.8473,-2.0611,0,0,0
-0.5566,-0.4429,0.7307,5.5649,4.9008,-0.4275,0,0,0
-0.5493,-0.4329,0.7476,3.9389,6.0153,0.7634,0,0,0
-0.5525,-0.4319,0.751,2.3588,7.9695,1.2443,0,0,0
-0.5623,-0.4355,0.7415,0.2519,9.4275,0.5725,0,0,0
-0.5745,-0.4351,0.7351,-1.7405,9.3359,-0.2901,0,0,0
-0.575,-0.4375,0.7202,-2.1374,8.145,-0.7023,0,0,0
-0.5718,-0.4441,0.7153,-1.9542,7.0687,-1.0611,0,0,0
-0.5652,-0.4543,0.7114,0.0458,7.0,-0.9618,0,0,0
-0.5681,-0.4563,0.7114,3.1985,7.2901,-1.4275,0,0,0
-0.5676,-0.4309,0.709,4.5038,8.2824,-1.6794,0,0,0
-0.5752,-0.4265,0.697,4.5878,7.9924,-2.2748,0,0,0
-0.5957,-0.4287,0.6809,4.4275,6.2901,-2.6565,0,0,0
-0.5854,-0.4385,0.686,4.542,3.6183,-2.0458,0,0,0
-0.5842,-0.4226,0.6995,5.1908,2.3969,-2.7252,0,0,0
-0.5725,-0.4377,0.7163,5.8244,1.3511,-2.7557,0,0,0
-0.5591,-0.4294,0.7253,8.3969,2.5038,-3.626,0,0,0
-0.5637,-0.415,0.729,11.1603,4.1832,-8.4351,0,0,0
-0.5635,-0.3989,0.7385,11.8015,6.3969,-11.1603,0,0,0
-0.5696,-0.4268,0.7371,11.2901,8.313,-11.1298,0,0,0
-0.5857,-0.4143,0.7231,10.2595,8.2137,-9.5954,0,0,0
-0.5896,-0.4111,0.7244,7.6565,5.8779,-8.0687,0,0,0
-0.5852,-0.3962,0.7129,2.7328,4.4885,-6.0458,0,0,0
-0.585,-0.4128,0.7087,-0.9771,2.2519,-4.145,0,0,0
-0.585,-0.4194,0.7117,-3.6031,0.4046,-3.0382,0,0,0
-0.5701,-0.4294,0.7102,-4.3282,-0.1832,-3.2443,0,0,0
-0.572,-0.4509,0.7141,-1.5115,-0.0458,-3.8473,0,0,0
-0.5669,-0.458,0.709,2.1679,0.5802,-4.2672,0,0,0
-0.5679,-0.439,0.7117,6.0153,1.626,-5.3588,0,0,0
-0.5735,-0.4333,0.697,8.5954,1.7557,-6.687,0,0,0
-0.5784,-0.4287,0.7007,8.5725,1.0305,-6.9771,0,0,0
-0.583,-0.4182,0.6968,5.6183,0.6107,-4.9542,0,0,0
-0.5889,-0.4263,0.7041,2.5038,-1.5802,-3.9618,0,0,0
-0.583,-0.4255,0.7058,-0.1679,-3.3588,-2.9924,0,0,0
-0.5723,-0.4355,0.7214,-2.3359,-4.3893,-2.0611,0,0,0
-0.5647,-0.439,0.7375,-3.5725,-3.8855,-0.9542,0,0,0
-0.5652,-0.4487,0.7439,-3.458,-2.7481,-0.374,0,0,0
-0.5654,-0.4583,0.7385,-1.9542,-2.1145,-0.0229,0,0,0
-0.5605,-0.4614,0.7375,0.6183,-0.855,0.2748,0,0,0
-0.5679,-0.4436,0.7268,2.9542,0.0458,1.0763,0,0,0
-0.574,-0.418,0.7178,2.5878,-0.5267,1.2595,0,0,0
-0.5737,-0.4067,0.7097,-0.1069,-1.0992,0.7176,0,0,0
-0.5757,-0.4043,0.7075,-2.8626,-1.5344,0.7252,0,0,0
-0.5676,-0.4121,0.7026,-4.8244,-1.9389,0.7481,0,0,0
-0.571,-0.4111,0.719,-5.8626,-1.9389,0.3588,0,0,0
-0.5732,-0.4316,0.7229,-4.9084,-1.3511,-0.1527,0,0,0
-0.5732,-0.4521,0.7222,-0.771,-0.6947,-0.3053,0,0,0
-0.5789,-0.4304,0.7139,1.9695,-1.2901,0.145,0,0,0
-0.5732,-0.4124,0.7239,2.9695,-1.374,-0.0763,0,0,0
-0.5669,-0.418,0.7278,2.5954,-1.6947,0.4351,0,0,0
-0.5823,-0.4124,0.7292,1.9542,-1.9695,1.1908,0,0,0
-0.5767,-0.4128,0.7317,0.5649,-3.0382,2.0458,0,0,0
-0.5762,-0.4124,0.731,-0.3664,-3.4046,1.313,0,0,0
-0.5696,-0.4182,0.7402,-1.6489,-3.5267,0.9084,0,0,0
-0.5613,-0.4329,0.7585,-1.5038,-1.771,0.5573,0,0,0
-0.5679,-0.4309,0.7437,0.6947,0.5115,0.6336,0,0,0
-0.5723,-0.4153,0.7361,0.6947,0.7481,0.8626,0,0,0
-0.5808,-0.4343,0.7251,1.8168,1.0382,-1.374,0,0,0
-0.583,-0.4204,0.7061,2.2519,-0.0229,-1.8244,1,0,0
-0.5908,-0.3662,0.7112,0.6947,-0.1221,-5.084,1,0,0
-0.5491,-0.4858,0.7134,2.5115,-0.4504,-5.0,1,0,0
-0.5771,-0.3945,0.7056,1.7252,-1.6107,-3.1374,1,0,0
-0.5547,-0.4241,0.7146,0.9389,-2.6107,-3.7176,1,0,0
-0.571,-0.3999,0.7144,-0.9389,-2.1832,-2.5954,1,0,0
-0.5618,-0.4058,0.7212,-5.0305,-2.4962,-3.2595,1,0,0
-0.5591,-0.408,0.7322,-8.1298,-2.3893,-2.8015,1,0,0
-0.5569,-0.4028,0.741,-11.6565,-2.9618,-2.084,1,0,0
-0.5605,-0.4167,0.7437,-15.2137,-3.5878,-1.3359,1,0,0
-0.5637,-0.4116,0.7532,-16.9542,-2.6565,-3.0687,1,0,0
-0.5635,-0.4719,0.7515,-15.5573,0.3969,-3.3435,1,0,0
-0.5576,-0.5002,0.7507,-9.6031,3.1069,-1.6031,1,0,0
-0.5735,-0.4712,0.7275,-3.687,3.687,-0.5038,1,0,0
-0.5825,-0.4309,0.709,-1.5267,2.5115,-0.7328,1,0,0
-0.5771,-0.4114,0.7048,-2.4275,0.9847,-1.2443,1,0,0
-0.5696,-0.4121,0.7046,-4.458,0.5115,-1.8168,1,0,0
-0.5679,-0.4221,0.708,-5.6641,0.626,-2.3359,1,0,0
-0.5759,-0.4229,0.7087,-6.2824,-0.1985,-2.5878,1,0,0
-0.5737,-0.4329,0.7134,-6.2366,-1.8855,-1.8779,1,0,0
-0.5732,-0.4451,0.7144,-5.1908,-2.458,-1.2366,1,0,0
-0.5757,-0.4426,0.7207,-2.6565,-2.1908,-0.5954,1,0,0
-0.5688,-0.4443,0.7185,-1.3359,-2.229,-0.7252,0,0,0
-0.5605,-0.4434,0.7273,-0.5496,-1.3969,-0.7099,0,0,0
-0.5645,-0.4309,0.7266,-0.7939,-0.2366,-0.3359,0,0,0
-0.5662,-0.4204,0.7227,-2.0076,0.0229,-0.8626,0,0,0
-0.5657,-0.4265,0.7212,-3.7328,-0.3206,-1.0153,0,0,0
-0.5693,-0.4302,0.7236,-4.2214,-0.6641,-0.7939,0,0,0
-0.5742,-0.4414,0.7258,-3.8626,-0.7405,-1.2672,0,0,0
-0.5691,-0.4355,0.7124,-3.1603,-1.3053,-0.7786,0,0,0
-0.5728,-0.4209,0.7051,-3.7023,-2.1374,-0.8168,0,0,0
-0.5667,-0.4338,0.7295,-4.4198,-2.9618,-1.4122,0,0,0
-0.5588,-0.448,0.7319,-4.2443,-2.0153,-1.229,0,0,0
-0.5662,-0.468,0.7253,-1.2901,-1.855,0.2748,0,0,0
-0.5728,-0.4338,0.7087,0.5649,-2.5344,0.229,0,0,0
-0.5649,-0.4231,0.7019,0.1756,-3.5954,-0.7786,0,0,0
-0.561,-0.4309,0.7124,-0.8015,-4.1069,-0.7939,0,0,0
-0.5625,-0.4268,0.728,-2.0305,-2.6412,-0.4962,0,0,0
-0.5554,-0.4409,0.7188,-2.5038,-1.9695,-0.5649,0,0,0
-0.5613,-0.429,0.7141,-2.6183,-2.0382,-0.6336,0,0,0
-0.5654,-0.426,0.7222,-3.5649,-2.5191,-1.2443,0,0,0
-0.5642,-0.4277,0.7239,-4.3282,-2.5115,-2.1069,0,0,0
-0.5627,-0.4451,0.7295,-4.458,-2.6031,-2.6718,0,0,0
-0.5652,-0.4604,0.7273,-3.2748,-2.8168,-1.6718,0,0,0
-0.562,-0.4487,0.7253,-1.2061,-3.0382,-1.0611,0,0,0
-0.5664,-0.4304,0.7249,-0.4504,-3.6718,-1.4198,0,0,0
-0.561,-0.4233,0.7158,-1.2214,-4.5725,-1.3206,0,0,0
-0.5623,-0.417,0.7212,-2.8092,-4.6641,-1.916,0,0,0
-0.5605,-0.4265,0.7158,-4.5802,-4.8092,-2.4809,0,0,0
-0.5562,-0.4375,0.7239,-4.2214,-4.5573,-2.687,0,0,0
-0.5649,-0.4543,0.7192,-1.313,-4.6641,-2.8931,0,0,0
-0.5593,-0.4414,0.7185,0.8168,-5.0076,-3.0916,0,0,0
-0.5583,-0.449,0.7292,2.6412,-5.7099,-3.5191,0,0,0
-0.5562,-0.4358,0.728,3.4275,-5.916,-3.4198,0,0,0
-0.5547,-0.4287,0.7314,2.7328,-5.6336,-3.0229,0,0,0
-0.5557,-0.4331,0.7168,1.2214,-4.9618,-2.458,0,0,0
-0.5505,-0.429,0.7239,-0.1145,-5.313,-2.6107,0,0,0
-0.5581,-0.4248,0.7212,-1.4275,-5.9389,-2.8931,0,0,0
-0.5593,-0.4429,0.7244,-2.084,-6.6031,-2.6947,0,0,0
-0.5588,-0.4536,0.719,-0.9237,-7.8244,-2.7328,0,0,0
-0.5581,-0.4553,0.7209,1.5038,-9.2137,-3.4198,0,0,0
-0.5566,-0.4517,0.7151,4.0992,-10.9695,-4.145,0,0,0
-0.5532,-0.4512,0.7261,5.1298,-11.9771,-3.5954,0,0,0
-0.5374,-0.4397,0.7283,4.4733,-11.771,-1.3664,0,0,0
-0.5361,-0.4197,0.7285,2.5191,-11.2672,-0.3053,0,0,0
-0.5342,-0.4189,0.7371,-0.2977,-10.8931,-0.8473,0,0,0
-0.5383,-0.4365,0.7419,-1.7023,-10.626,-2.2824,0,0,0
-0.5396,-0.4424,0.7458,-1.4122,-10.5115,-2.5573,0,0,0
-0.5391,-0.4465,0.7476,-0.4046,-10.5267,-2.2061,0,0,0
-0.5322,-0.4468,0.7583,-0.0229,-10.7786,-1.5344,0,0,0
-0.5232,-0.4402,0.7642,0.1985,-9.3893,-0.7023,0,0,0
-0.5198,-0.4443,0.7781,0.2519,-7.229,0.7328,0,0,0
-0.5254,-0.4355,0.7605,0.2748,-5.2672,1.0076,0,0,0
-0.5281,-0.4187,0.7649,-0.4656,-4.229,0.229,0,0,0
-0.5195,-0.4211,0.7581,-0.3359,-5.9847,-0.6031,0,0,0
-0.5083,-0.4463,0.7659,-1.2137,-2.5954,-1.2748,0,0,0
-0.5261,-0.4348,0.7705,-1.6107,-1.3511,-0.6412,0,0,0
-0.5286,-0.4419,0.77,-2.4656,0.0992,-0.2137,0,0,0
-0.5347,-0.4351,0.7627,-3.1069,-0.0229,-0.2061,0,0,0
-0.522,-0.437,0.7661,-3.084,0.4046,-0.2366,0,0,0
-0.5276,-0.4468,0.7615,-1.2137,0.7252,-1.1603,0,0,0
-0.5344,-0.4382,0.7505,0.7252,0.4809,-1.4809,0,0,0
-0.5356,-0.4363,0.748,1.2672,0.1908,-1.542,0,0,0
-0.5332,-0.4199,0.7395,-0.5191,0.0916,-1.0611,0,0,0
-0.531,-0.4263,0.7388,-1.458,-0.1832,-1.6718,0,0,0
-0.5325,-0.426,0.7373,-1.5496,-0.9542,-2.3511,0,0,0
-0.5317,-0.4419,0.7424,-0.9924,-1.5573,-2.5573,0,0,0
-0.5361,-0.4436,0.7385,-0.1679,-1.855,-2.7481,0,0,0
-0.5332,-0.4407,0.7517,0.313,-2.4809,-2.2824,0,0,0
-0.5234,-0.4478,0.7505,1.4427,-2.1145,-1.9313,0,0,0
-0.5208,-0.4377,0.7488,1.7328,-1.4198,-1.3053,0,0,0
-0.5251,-0.4287,0.751,1.3664,-0.542,-1.458,0,0,0
-0.5378,-0.4324,0.7473,0.6107,-0.3969,-1.8168,0,0,0
-0.5288,-0.4299,0.7583,0.3511,-0.9618,-1.8931,0,0,0
-0.5273,-0.4319,0.7588,0.6794,-1.7634,-2.6336,0,0,0
-0.5283,-0.4387,0.7607,0.6412,-1.4733,-2.7557,0,0,0
-0.5227,-0.4294,0.7671,0.3969,-0.7405,-2.1679,0,0,0
-0.5249,-0.4336,0.7595,0.5267,0.4351,-2.3817,0,0,0
-0.522,-0.4331,0.7717,0.4351,0.7023,-3.2137,0,0,0
-0.522,-0.4294,0.7708,-0.0534,1.7786,-2.9924,0,0,0
-0.53,-0.4351,0.7576,-0.5344,2.0305,-2.2672,0,0,0
-0.5354,-0.439,0.7542,-1.145,1.1832,-1.2901,0,0,0
-0.5354,-0.4316,0.7507,-1.5725,-0.0458,-0.9389,0,0,0
-0.531,-0.4316,0.7451,-1.8092,-0.5496,-0.8244,0,0,0
-0.5254,-0.4397,0.7488,-2.2061,-0.855,-0.7099,0,0,0
-0.5234,-0.4385,0.7561,-2.5267,-0.9008,-0.7328,0,0,0
-0.5193,-0.4412,0.7537,-3.5038,-0.5115,0.2443,0,0,0
-0.5222,-0.4507,0.7549,-4.8702,0.8473,1.3588,0,0,0
-0.5254,-0.4529,0.7561,-5.5267,1.1298,2.8473,0,0,0
-0.5229,-0.46,0.75,-5.4656,1.4733,3.8015,0,0,0
-0.5298,-0.459,0.7468,-5.4275,0.6107,5.3359,0,0,0
-0.5293,-0.449,0.7371,-6.1221,0.0763,6.8473,0,0,0
-0.5303,-0.4517,0.7429,-7.5878,-0.4809,7.8015,0,0,0
-0.5298,-0.449,0.7488,-9.1679,-0.7786,9.0916,0,0,0
-0.5303,-0.4404,0.75,-11.0076,-1.0534,10.2595,0,0,0
-0.5349,-0.4377,0.7397,-12.6031,-1.3817,11.7252,0,0,0
-0.5325,-0.4446,0.7263,-14.8473,-0.626,12.916,0,0,0
-0.5364,-0.4583,0.7336,-14.5649,-3.0611,14.0229,0,0,0
-0.5476,-0.439,0.7417,-13.4885,-4.2214,13.3664,0,0,0
-0.543,-0.4431,0.7449,-9.145,-4.8702,8.7863,0,0,0
-0.5344,-0.4253,0.748,-3.374,-4.2595,3.8168,0,0,0
-0.5449,-0.4343,0.7544,0.9084,-4.9313,0.9695,0,0,0
-0.5339,-0.4265,0.7605,2.0458,-1.5496,1.8015,0,0,0
-0.5486,-0.4155,0.7529,1.9084,-1.7176,2.7863,0,0,0
-0.5378,-0.4006,0.7595,-0.0305,-1.5573,3.0,0,0,0
-0.5396,-0.3879,0.7563,-2.4809,-0.9695,2.3206,0,0,0
-0.5371,-0.3909,0.7639,-4.3588,-1.0458,1.4885,0,0,0
-0.532,-0.3975,0.752,-5.7634,-0.3435,0.0916,0,0,0
-0.5371,-0.4285,0.751,-4.6489,0.2137,-1.5573,0,0,0
-0.5376,-0.4399,0.7415,-1.5878,0.0611,-1.7786,0,0,0
-0.5349,-0.437,0.7507,1.4809,0.4656,-1.5954,0,0,0
-0.5381,-0.4177,0.7427,1.7023,0.8244,-1.1603,0,0,0
-0.5366,-0.4094,0.74,1.2443,1.0305,-2.2519,0,0,0
-0.5366,-0.4312,0.7478,1.5496,0.9542,-3.9084,0,0,0
-0.5369,-0.4343,0.7505,2.313,0.8092,-3.9313,0,0,0
-0.5371,-0.4346,0.7493,1.4046,0.7023,-3.771,0,0,0
-0.5383,-0.4348,0.738,-0.5573,-0.3053,-3.4275,0,0,0
-0.5361,-0.4485,0.7419,-0.6718,-0.8855,-3.6489,0,0,0
-0.5291,-0.4521,0.7461,-0.6641,-0.7939,-3.084,0,0,0
-0.5332,-0.4507,0.749,-1.7328,-1.0611,-1.2519,0,0,0
-0.5342,-0.4434,0.7524,-3.3893,-0.7405,0.6947,0,0,0
-0.5349,-0.4487,0.7424,-5.0916,-0.7023,3.1603,0,0,0
-0.53,-0.4612,0.7417,-5.4351,-0.687,5.4427,0,0,0
-0.5313,-0.4539,0.7441,-5.1527,-0.4427,6.8168,0,0,0
-0.5378,-0.4482,0.7388,-4.6107,-0.6565,5.9542,0,0,0
-0.5371,-0.4468,0.7383,-4.6031,-1.7939,6.0076,0,0,0
-0.5376,-0.4348,0.7439,-5.0992,-2.0611,5.5267,0,0,0
-0.5361,-0.428,0.7427,-6.542,-2.1221,5.8092,0,0,0
-0.5354,-0.4365,0.7415,-8.7328,-2.0687,7.0458,0,0,0
-0.5374,-0.4287,0.7471,-11.2443,-2.2748,8.8397,0,0,0
-0.5493,-0.436,0.7361,-13.6794,-3.2595,11.2977,0,0,0
-0.5313,-0.4321,0.7292,-14.687,-6.4504,14.1298,0,0,0
-0.5413,-0.4441,0.7312,-15.229,-7.7939,16.3053,0,0,0
-0.5552,-0.4463,0.7224,-15.0687,-10.0153,17.9924,0,0,0
-0.5515,-0.4451,0.7358,-14.229,-12.0687,18.3511,0,0,0
-0.5361,-0.4314,0.7395,-14.084,-11.2214,17.542,0,0,0
-0.5291,-0.4277,0.7402,-14.2137,-10.4885,16.6794,0,0,0
-0.5422,-0.4265,0.7383,-13.6412,-9.1527,14.5649,0,0,0
-0.5415,-0.4309,0.7488,-12.1603,-8.4733,11.916,0,0,0
-0.5549,-0.4375,0.7383,-9.9924,-8.084,9.4351,0,0,0
-0.532,-0.4255,0.7534,-7.5802,-7.0153,7.4733,0,0,0
-0.54,-0.4258,0.7524,-6.1679,-6.3893,6.0153,0,0,0
-0.5386,-0.4226,0.7593,-3.9466,-5.0076,5.4809,0,0,0
-0.5391,-0.4167,0.7642,-2.4351,-3.916,5.1069,0,0,0
-0.5334,-0.4058,0.7588,-2.5649,-2.687,5.0305,0,0,0
-0.543,-0.4009,0.7549,-3.6183,-2.4351,4.2366,0,0,0
-0.54,-0.4172,0.7571,-3.9847,-1.9084,4.0229,0,0,0
-0.5364,-0.4155,0.7642,-4.0,-1.2214,3.9008,0,0,0
-0.5386,-0.4143,0.7583,-3.9924,-0.7939,3.1832,0,0,0
-0.5344,-0.4114,0.7515,-4.5344,-0.2748,2.313,0,0,0
-0.5383,-0.4131,0.7542,-4.5496,0.4351,1.0076,0,0,0
-0.5442,-0.4324,0.7578,-4.3511,0.9542,0.2901,0,0,0
-0.5393,-0.4397,0.748,-3.0153,1.4504,0.5802,0,0,0
-0.5454,-0.4463,0.7439,-1.3435,1.3435,1.0687,0,0,0
-0.5371,-0.4351,0.7458,-0.3282,1.145,1.1908,0,0,0
-0.5415,-0.4324,0.7473,-0.2595,1.1298,1.4733,0,0,0
-0.5386,-0.4272,0.751,-0.5878,1.2901,0.8855,0,0,0
-0.5393,-0.4243,0.7395,-1.8702,1.5802,1.1221,0,0,0
-0.541,-0.417,0.7419,-3.8397,1.7786,0.9618,0,0,0
-0.5415,-0.4253,0.7441,-5.3664,2.5267,1.0153,0,0,0
-0.5491,-0.4351,0.7451,-6.1145,2.687,0.7099,0,0,0
-0.5461,-0.4368,0.7522,-6.1145,3.084,1.1527,0,0,0
-0.5422,-0.4465,0.7417,-5.7328,3.2366,2.3359,0,0,0
-0.5332,-0.4412,0.7456,-5.8168,4.6336,3.6183,0,0,0
-0.5459,-0.436,0.7358,-6.3206,4.8702,4.1679,0,0,0
-0.5452,-0.4377,0.7417,-6.8702,5.5038,4.5344,0,0,0
-0.5496,-0.4353,0.7375,-6.4351,4.9466,4.5878,0,0,0
-0.5476,-0.4294,0.7417,-7.2519,5.4427,3.9389,0,0,0
-0.5493,-0.4399,0.7412,-7.374,6.0,3.374,0,0,0
-0.551,-0.4358,0.7305,-7.1298,6.5802,3.5649,0,0,0
-0.5608,-0.426,0.7278,-7.0382,6.4427,3.1832,0,0,0
-0.5681,-0.4285,0.7268,-6.9695,5.5344,2.3511,0,0,0
-0.5701,-0.4382,0.717,-5.9924,4.313,1.7939,0,0,0
-0.5671,-0.4341,0.7156,-4.1069,2.374,1.0611,0,0,0
-0.561,-0.4263,0.7188,-3.5191,1.5725,0.9924,0,0,0
-0.5615,-0.4153,0.7207,-3.1679,1.2595,0.7786,0,0,0
-0.5613,-0.4246,0.7234,-2.6107,1.2748,0.1298,0,0,0
-0.5581,-0.4133,0.7244,-3.0153,1.5878,-0.3511,0,0,0
-0.5637,-0.4131,0.7227,-3.8015,1.6718,-0.5649,0,0,0
-0.5669,-0.4294,0.7173,-3.8244,1.2901,-0.6412,0,0,0
-0.5691,-0.4351,0.7131,-2.7939,0.3893,-0.3969,0,0,0
-0.5674,-0.4395,0.7207,-1.542,-0.7328,-0.7328,0,0,0
-0.5647,-0.4341,0.7195,-0.5038,-1.1374,-0.6183,0,0,0
-0.5576,-0.4319,0.7256,0.0,-1.1221,-0.855,0,0,0
-0.5564,-0.4265,0.7236,-0.2366,-0.9466,-1.3053,0,0,0
-0.5547,-0.425,0.7271,-0.9695,-0.6031,-1.8702,0,0,0
-0.5642,-0.4331,0.7227,-1.6489,-0.6641,-1.7863,0,0,0
-0.5645,-0.4358,0.7205,-1.687,-1.0611,-1.2061,0,0,0
-0.5635,-0.4421,0.7173,-1.2137,-2.2137,-1.0916,0,0,0
-0.5601,-0.4446,0.7358,-0.626,-2.2443,-1.0,0,0,0
-0.5552,-0.4497,0.7332,0.0534,-2.084,-0.0153,0,0,0
-0.5503,-0.4429,0.7393,0.5649,-1.2977,0.3435,0,0,0
-0.5574,-0.425,0.7395,-0.084,-0.1603,-0.0229,0,0,0
-0.5522,-0.4282,0.7434,-1.8702,0.7176,-0.4046,0,0,0
-0.553,-0.4246,0.7412,-3.4809,2.2672,-0.3664,0,0,0
-0.5593,-0.4136,0.7417,-6.1069,2.8779,-0.8321,0,0,0
-0.5667,-0.4351,0.731,-7.771,2.3588,-0.6412,0,0,0
-0.562,-0.4429,0.7319,-7.0916,1.7557,-0.0611,0,0,0
-0.5601,-0.4514,0.7332,-6.3893,1.7481,0.4809,0,0,0
-0.5549,-0.4534,0.7368,-4.626,2.0305,1.6336,0,0,0
-0.5583,-0.4331,0.7334,-3.8779,3.2901,2.1908,0,0,0
-0.563,-0.4248,0.7258,-3.8015,3.6794,0.916,0,0,0
-0.5662,-0.4299,0.7202,-3.7252,4.0,0.2443,0,0,0
-0.5767,-0.4336,0.7034,-3.5115,2.6183,-0.5878,0,0,0
-0.5825,-0.4355,0.689,-2.0458,-0.1679,-0.7863,0,0,0
-0.5725,-0.4375,0.7039,-1.2214,-2.542,-1.0,0,0,0
-0.5618,-0.4397,0.7148,-0.7786,-2.9771,-0.8015,0,0,0
-0.5613,-0.4324,0.7234,-0.916,-1.6718,0.5649,0,0,0
-0.5579,-0.4429,0.7327,-1.1145,-0.7939,0.6412,0,0,0
-0.5586,-0.4329,0.7271,-1.1603,0.6641,0.0305,0,0,0
-0.5625,-0.4324,0.7212,-1.1908,0.5038,-0.5802,0,0,0
-0.5571,-0.4377,0.7354,-1.2443,0.7557,-1.1221,0,0,0
-0.5574,-0.4368,0.7354,-1.9771,2.1832,-1.1145,0,0,0
-0.5542,-0.4441,0.7422,-3.3359,2.8015,-0.4046,0,0,0
-0.553,-0.4307,0.7458,-5.229,4.0,0.5878,0,0,0
-0.5693,-0.4417,0.7385,-6.6031,4.3511,1.3435,0,0,0
-0.5676,-0.4409,0.7339,-7.0153,4.3511,1.2977,0,0,0
-0.5789,-0.4382,0.7214,-7.0611,4.2214,0.6947,0,0,0
-0.5732,-0.4407,0.7126,-6.0611,3.3435,0.2901,0,0,0
-0.5742,-0.4473,0.6995,-4.084,1.916,-0.0305,0,0,0
-0.5859,-0.4424,0.6873,-1.4733,0.4427,-0.4198,0,0,0
-0.5759,-0.4402,0.679,0.6183,-1.2901,-0.0382,0,0,0
-0.5625,-0.4233,0.7009,0.9847,-1.3282,0.7405,0,0,0
-0.5598,-0.4116,0.7048,-0.6336,-0.6794,0.2366,0,0,0
-0.5649,-0.4116,0.7156,-3.3664,0.5344,-0.7481,0,0,0
-0.5693,-0.4224,0.7224,-4.5649,0.6107,-1.771,0,0,0
-0.5754,-0.4387,0.7188,-4.9084,0.6412,-1.9389,0,0,0
-0.5796,-0.4558,0.7085,-2.6412,-0.7863,-1.5878,0,0,0
-0.5764,-0.449,0.7148,-1.4504,-2.4885,-1.3511,0,0,0
-0.5674,-0.4395,0.731,-1.1908,-2.0458,-0.7405,0,0,0
-0.5583,-0.4336,0.7388,-1.8321,-0.2443,-0.6031,0,0,0
-0.5581,-0.4355,0.7351,-3.2977,1.0916,-0.8244,0,0,0
-0.5691,-0.4441,0.7219,-4.3053,0.6718,-0.9084,0,0,0
-0.5781,-0.4463,0.7173,-4.2595,0.4656,-0.3588,0,0,0
-0.572,-0.4465,0.7183,-4.0534,-0.0611,0.0229,0,0,0
-0.5664,-0.4395,0.7251,-4.0687,-0.1756,0.1298,0,0,0
-0.5706,-0.4497,0.7178,-3.0916,0.0,-0.2061,0,0,0
-0.573,-0.448,0.7117,-1.8397,0.0305,-0.2748,0,0,0
-0.574,-0.4446,0.7095,-0.6718,-0.9542,-0.5496,0,0,0
-0.5688,-0.4358,0.7087,-0.6107,-1.0458,0.0153,0,0,0
-0.5625,-0.4355,0.7197,-1.8321,-0.1145,0.4885,0,0,0
-0.5537,-0.4282,0.7336,-3.4046,2.0153,0.9389,0,0,0
-0.5554,-0.4255,0.7363,-4.9084,4.4046,0.1603,0,0,0
-0.5625,-0.4399,0.7344,-5.7786,5.5115,-0.4809,0,0,0
-0.5647,-0.4443,0.7346,-6.0458,6.4198,-1.0305,0,0,0
-0.5806,-0.4443,0.7168,-5.7863,5.7863,-1.8397,0,0,0
-0.5742,-0.4482,0.7139,-4.2137,4.5802,-1.0229,0,0,0
-0.5886,-0.4446,0.7056,-3.3435,3.2595,-1.2748,0,0,0
-0.5803,-0.4512,0.6919,-1.7252,1.7023,-0.3893,0,0,0
-0.5798,-0.4397,0.6848,0.0076,-0.5191,-0.1527,0,0,0
-0.5801,-0.4268,0.6841,0.0916,-1.4504,-0.1145,0,0,0
-0.5757,-0.4358,0.688,-0.0534,-2.313,0.0992,0,0,0
-0.571,-0.4341,0.6929,-0.0305,-2.1832,0.1145,0,0,0
-0.5732,-0.4375,0.7031,-0.3664,-2.2901,-0.458,0,0,0
-0.5688,-0.4377,0.7046,-1.0458,-2.2137,-0.7863,0,0,0
-0.5708,-0.4399,0.7209,-1.687,-0.8855,-0.916,0,0,0
-0.5718,-0.457,0.7188,-1.374,-0.1145,-1.0763,0,0,0
-0.5715,-0.4507,0.7183,-0.1832,-0.7863,-0.6718,0,0,0
-0.5796,-0.4419,0.7102,0.3511,-1.7863,-0.5954,0,0,0
-0.5754,-0.4446,0.709,0.2519,-2.084,-0.1298,0,0,0
-0.5767,-0.4404,0.7192,0.3206,-2.5115,-0.084,0,0,0
-0.5745,-0.4319,0.7153,-0.1221,-2.8931,0.0229,0,0,0
-0.5745,-0.427,0.7107,-0.8473,-2.5954,-0.145,0,0,0
-0.572,-0.4307,0.7117,-1.0763,-3.0916,-0.5038,0,0,0
-0.5618,-0.4453,0.7244,-1.4046,-2.5344,-0.4122,0,0,0
-0.5676,-0.4443,0.7212,0.0076,-1.2443,0.3664,0,0,0
-0.5718,-0.4365,0.7253,0.2214,-0.8244,0.0763,0,0,0
-0.5625,-0.4329,0.7324,-1.2214,0.2214,-0.4656,0,0,0
-0.5649,-0.4382,0.7302,-1.9771,1.5878,-0.3206,0,0,0
-0.5735,-0.4263,0.7302,-3.313,1.9771,-0.9237,0,0,0
-0.574,-0.4314,0.7153,-4.5573,1.8168,-1.4046,0,0,0
-0.5769,-0.4431,0.7095,-4.5115,1.2519,-1.1985,0,0,0
-0.5825,-0.447,0.7122,-3.5344,0.458,-0.4809,0,0,0
-0.5706,-0.4421,0.7192,-2.5573,0.2519,0.5573,0,0,0
-0.5688,-0.4319,0.7124,-2.626,1.5954,0.084,0,0,0
-0.5664,-0.4209,0.7231,-3.6412,2.5191,-0.7099,0,0,0
-0.5664,-0.4258,0.719,-5.3893,3.5878,-1.5038,0,0,0
-0.5696,-0.4338,0.7322,-6.3282,5.1985,-1.5573,0,0,0
-0.5791,-0.4475,0.7212,-6.6336,6.0382,-2.3664,0,0,0
-0.5764,-0.4644,0.7131,-5.0611,5.6107,-1.771,0,0,0
-0.571,-0.4595,0.7178,-3.6947,5.5344,-0.1374,0,0,0
-0.5791,-0.4475,0.6924,-3.1756,4.916,0.3893,0,0,0
-0.5894,-0.4495,0.6904,-2.6947,3.2977,-0.4046,0,0,0
-0.5872,-0.4451,0.6902,-1.855,1.1679,-0.771,0,0,0
-0.5862,-0.4448,0.6724,-1.2061,-0.6031,-0.5649,0,0,0
-0.5852,-0.4507,0.6707,-0.4962,-2.4427,-0.7786,0,0,0
-0.574,-0.4531,0.6838,0.9313,-3.5038,-0.3053,0,0,0
-0.5706,-0.4514,0.6887,2.2901,-3.1527,0.8015,0,0,0
-0.5728,-0.439,0.6992,2.0687,-1.8855,1.2061,0,0,0
-0.5786,-0.426,0.7029,0.7863,-1.6947,0.3511,0,0,0
-0.5806,-0.4365,0.6951,-0.0076,-2.1832,-0.4351,0,0,0
-0.5793,-0.4492,0.7102,0.2443,-3.458,-0.8015,0,0,0
-0.5776,-0.4443,0.7305,0.4351,-3.0382,-1.2977,0,0,0
-0.5779,-0.4446,0.7302,-0.0687,-2.8626,-1.0534,0,0,0
-0.5781,-0.449,0.7283,-0.3359,-2.9389,-0.8397,0,0,0
-0.5713,-0.4434,0.7236,-0.4046,-2.4351,-0.2366,0,0,0
-0.5728,-0.4382,0.731,-0.626,-2.0,-0.1145,0,0,0
-0.5718,-0.4453,0.7253,0.2214,-1.0687,0.7328,0,0,0
-0.5781,-0.4336,0.7163,0.9695,-0.8855,0.458,0,0,0
-0.5767,-0.4248,0.7087,1.2443,-1.0687,-0.0687,0,0,0
-0.575,-0.427,0.7036,1.3588,-1.1145,-0.6565,0,0,0
-0.5681,-0.4324,0.7085,0.9618,-0.5878,-0.2443,0,0,0
-0.5735,-0.4338,0.7092,0.9695,-0.0534,0.2748,0,0,0
-0.5789,-0.4358,0.7087,1.1908,0.0763,0.2443,0,0,0
-0.5859,-0.4546,0.709,2.542,-0.4351,-0.4198,0,0,0
-0.583,-0.446,0.7102,3.8702,-1.7176,0.3664,0,0,0
-0.5811,-0.4341,0.7063,4.0229,-2.9237,0.8397,0,0,0
-0.564,-0.4417,0.7146,4.5344,-3.2748,0.2061,0,0,0
-0.5581,-0.4453,0.7271,5.084,-1.5267,0.0153,0,0,0
-0.5706,-0.4373,0.7402,4.5267,0.1221,0.6412,0,0,0
-0.5764,-0.437,0.7336,4.1832,1.916,2.8168,0,0,0
-0.5776,-0.425,0.731,2.4198,1.9924,3.8702,0,0,0
-0.5779,-0.4136,0.7249,0.1221,1.3359,3.0229,1,0,0
-0.5959,-0.3813,0.708,0.0229,0.8702,-2.3588,1,0,0
-0.5796,-0.4673,0.7278,2.2901,1.6947,-0.8244,1,0,0
-0.5847,-0.4058,0.7102,2.5802,0.4962,-0.8397,1,0,0
-0.5674,-0.4106,0.7139,1.5802,0.7176,0.0305,1,0,0
-0.5725,-0.429,0.7307,-1.0382,1.8397,0.4809,1,0,0
-0.5811,-0.4185,0.7117,-0.1832,2.3359,0.0534,1,0,0
-0.5796,-0.4109,0.7046,-0.1069,1.1298,-0.5802,1,0,0
-0.5847,-0.4133,0.7031,-1.3053,0.1298,-0.855,1,0,0
-0.5842,-0.4119,0.7075,-2.313,-0.9389,-1.2977,1,0,0
-0.5793,-0.4255,0.7146,-2.8626,-1.0229,-1.3282,1,0,0
-0.5769,-0.4358,0.7175,-1.9618,-0.7939,-0.4351,1,0,0
-0.5769,-0.4338,0.719,-0.4275,-0.0382,-0.3817,1,0,0
-0.5762,-0.4338,0.7197,0.8092,0.7786,0.2519,1,0,0
-0.5803,-0.4282,0.7185,1.855,0.2595,-0.2977,1,0,0
-0.5823,-0.4207,0.708,1.0992,-0.5267,-0.6489,1,0,0
-0.5796,-0.4243,0.7102,-0.5344,-1.2595,-0.8244,1,0,0
-0.5771,-0.4231,0.7146,-2.1374,-1.6107,-0.2824,1,0,0
-0.5732,-0.4355,0.7253,-3.0687,-1.4733,0.0076,1,0,0
-0.573,-0.4368,0.7124,-3.7176,-1.2214,1.0382,1,0,0
-0.5745,-0.4353,0.7202,-3.9237,-1.2672,1.3969,1,0,0
-0.5789,-0.439,0.7239,-4.3817,-1.0305,1.4122,1,0,0
-0.5735,-0.4482,0.7261,-4.229,-0.4351,2.2977,1,0,0
-0.5732,-0.4517,0.7266,-4.542,0.6565,3.1756,1,0,0
-0.5698,-0.4502,0.7302,-6.2824,1.1832,4.4885,1,0,0
-0.5708,-0.4507,0.7305,-10.542,2.0229,6.0916,1,0,0
-0.5803,-0.4487,0.7104,-14.2901,1.7557,7.1985,1,0,0
-0.5808,-0.4602,0.7119,-17.2977,0.9542,8.2672,1,0,0
-0.5754,-0.4602,0.7046,-19.626,0.4962,10.0382,1,0,0
-0.5818,-0.4424,0.71,-22.3588,0.771,10.9618,1,0,0
-0.593,-0.4099,0.7034,-28.8473,-0.2214,11.9237,1,0,0
-0.5916,-0.429,0.6951,-35.1756,-0.9847,13.5649,1,0,0
-0.5869,-0.4353,0.6946,-37.9313,-1.7099,14.8931,1,0,0
-0.5933,-0.4443,0.6929,-37.9542,-3.4962,14.1374,1,0,0
-0.5889,-0.4556,0.6987,-36.2977,-4.0611,14.9924,1,0,0
-0.5918,-0.4521,0.707,-33.3206,-3.9847,16.4275,1,0,0
-0.5867,-0.4624,0.7126,-29.0076,-3.3893,17.9542,1,0,0
-0.5854,-0.4434,0.6978,-25.2595,-3.2977,19.1145,1,0,0
-0.5845,-0.3955,0.6802,-23.4656,-2.6183,19.5725,1,0,0
-0.5591,-0.4014,0.7039,-19.8931,-8.6565,18.3435,1,0,0
-0.5876,-0.4236,0.7009,-16.5191,-4.3588,15.4275,1,0,0
-0.6047,-0.418,0.6963,-14.2519,-4.2901,13.5267,1,0,0
-0.5979,-0.4023,0.6926,-13.6489,-4.4656,11.4046,1,0,0
-0.6101,-0.3984,0.6794,-12.9542,-4.3359,8.3435,1,0,0
-0.6091,-0.4138,0.6746,-12.8015,-5.4427,4.771,1,0,0
-0.6008,-0.4197,0.6731,-10.3206,-6.229,2.0305,1,0,0
-0.606,-0.4458,0.676,-6.4198,-7.8473,0.8473,1,0,0
-0.6111,-0.448,0.6685,-2.1527,-9.4504,0.7481,1,0,0
-0.5935,-0.447,0.6582,1.3893,-11.0076,0.8855,1,0,0
-0.5886,-0.4263,0.667,3.1221,-11.9389,-0.0992,1,0,0
-0.5952,-0.4192,0.6655,3.4275,-11.687,-1.8702,1,0,0
-0.594,-0.4255,0.6765,4.0687,-12.1603,-3.5573,1,0,0
-0.5632,-0.4355,0.6982,4.9924,-10.4427,-4.7481,1,0,0
-0.5684,-0.4399,0.7068,6.7863,-7.9084,-5.1527,1,0,0
-0.571,-0.4441,0.7275,10.6794,-4.3511,-10.7634,1,0,0
-0.5723,-0.4377,0.7258,14.6641,-1.7939,-14.5344,1,0,0
-0.5747,-0.4333,0.731,17.0305,-0.0763,-16.6947,1,0,0
-0.5745,-0.4482,0.7307,17.3664,1.458,-16.1298,1,0,0
-0.5801,-0.4395,0.7249,17.5038,2.8092,-15.7252,1,0,0
-0.5728,-0.4299,0.7288,16.9466,3.2137,-16.3817,1,0,0
-0.572,-0.4321,0.7356,17.0611,6.3359,-17.8244,1,0,0
-0.5747,-0.4373,0.7354,17.0153,7.4504,-18.313,1,0,0
-0.5669,-0.4258,0.7341,15.9542,8.2214,-18.3893,1,0,0
-0.5471,-0.4324,0.7522,14.1069,10.6718,-17.0763,1,0,0
-0.5408,-0.4324,0.749,11.7099,15.9237,-16.2901,1,0,0
-0.5886,-0.4851,0.7412,10.7634,21.6107,-17.5191,1,0,0
-0.5308,-0.4502,0.7671,16.2595,24.5802,-22.1908,1,0,0
-0.5454,-0.4417,0.7532,20.0076,29.8626,-25.3893,1,0,0
-0.5718,-0.4622,0.728,20.6718,33.5267,-23.1756,1,0,0
-0.5967,-0.4617,0.7009,17.374,32.4046,-17.374,1,0,0
-0.6086,-0.4475,0.6809,11.916,29.8397,-11.5878,1,0,0
-0.6021,-0.4331,0.6814,5.6489,26.2672,-7.9924,1,0,0
-0.5894,-0.4436,0.6875,-0.5496,25.2672,-6.6947,1,0,0
-0.5776,-0.4556,0.7007,-4.4504,26.6565,-5.3588,1,0,0
-0.5806,-0.4802,0.71,-8.0458,28.6183,-3.4504,1,0,0
-0.5786,-0.4954,0.7056,-11.3206,32.7863,0.4885,1,0,0
-0.6035,-0.5085,0.6782,-13.5725,35.0534,3.2977,1,0,0
-0.603,-0.4978,0.6665,-15.5496,34.7176,6.2061,1,0,0
-0.6038,-0.4836,0.668,-18.8931,34.1679,8.3664,1,0,0
-0.5916,-0.48,0.6826,-25.4351,35.5496,12.0534,1,0,0
-0.6016,-0.4536,0.686,-30.6794,36.5649,14.8626,1,0,0
-0.6462,-0.47,0.6658,-35.5649,36.9313,18.1221,1,0,0
-0.6436,-0.4434,0.6548,-39.4656,36.1527,18.8779,1,0,0
-0.6533,-0.4448,0.6255,-43.7939,32.8779,18.3435,1,0,0
-0.6541,-0.4595,0.6697,-51.4504,35.1832,23.8855,1,0,0
-0.636,-0.4697,0.6653,-53.7252,38.3435,30.6412,1,0,0
-0.6738,-0.4546,0.6152,-54.4885,39.229,30.7634,1,0,0
-0.7065,-0.4832,0.5845,-49.3435,36.6183,28.2595,1,0,0
-0.7124,-0.4646,0.5442,-40.7023,31.5114,21.8168,1,0,0
-0.7104,-0.4719,0.5374,-31.7557,26.4504,18.4427,1,0,0
-0.7065,-0.4543,0.5098,-25.1145,21.2824,16.2748,1,0,0
-0.7122,-0.4341,0.5073,-20.1908,17.3817,15.0458,1,0,0
-0.7117,-0.4153,0.5051,-17.7328,14.458,14.6183,1,0,0
-0.7205,-0.4019,0.4971,-16.3817,11.3282,12.9237,1,0,0
-0.7185,-0.3865,0.4956,-16.0458,7.7939,10.229,1,0,0
-0.7307,-0.4063,0.4792,-14.1527,2.9924,6.0916,1,0,0
-0.7102,-0.4253,0.4907,-10.4733,-1.2824,2.6794,1,0,0
-0.6897,-0.4321,0.5034,-6.3359,-1.7863,1.3893,1,0,0
-0.688,-0.4507,0.5364,-2.5038,-1.1298,1.1832,1,0,0
-0.6956,-0.4365,0.5271,-0.5038,0.2519,0.5344,1,0,0
-0.7104,-0.4424,0.53,0.1145,-0.3588,-0.9771,1,0,0
-0.719,-0.4453,0.5171,0.9542,-2.4656,-3.0229,1,0,0
-0.7102,-0.4592,0.5281,1.4733,-4.229,-4.0153,1,0,0
-0.7034,-0.4688,0.5366,1.7176,-5.9618,-3.5038,1,0,0
-0.688,-0.4663,0.5596,0.0229,-5.2824,-2.1679,1,0,0
-0.6948,-0.4785,0.5642,-1.2137,-3.458,-0.9466,1,0,0
-0.6941,-0.4829,0.5747,-1.7786,-2.5496,-0.9695,1,0,0
-0.6885,-0.4766,0.5837,-2.4351,-1.458,-0.6336,1,0,0
-0.7014,-0.4746,0.5747,-2.7328,-0.3817,-1.1832,1,0,0
-0.7017,-0.4883,0.5684,-3.4962,-0.5802,-1.3893,1,0,0
-0.7009,-0.4829,0.5771,-3.5725,0.2824,-1.2519,1,0,0
-0.7007,-0.4866,0.5735,-3.0611,0.7557,-0.8702,1,0,0
-0.7009,-0.4944,0.5762,-0.9084,1.2672,-0.4046,1,0,0
-0.666,-0.426,0.5364,2.9313,2.0763,-3.8931,1,0,0
-0.7053,-0.457,0.5671,8.7023,3.1756,-6.0534,1,0,0
-0.6951,-0.4475,0.5686,9.8855,3.5496,-6.4733,1,0,0
-0.6931,-0.4348,0.5591,8.2061,5.4198,-4.9466,1,0,0
-0.7085,-0.4268,0.5464,5.2443,5.458,-4.1985,1,0,0
-0.71,-0.4255,0.5452,2.3817,4.0382,-4.0153,1,0,0
-0.7139,-0.4419,0.5457,-0.084,2.7023,-4.3206,1,0,0
-0.709,-0.4563,0.5405,-1.3511,1.313,-4.1679,1,0,0
-0.7139,-0.4805,0.543,-0.4122,-0.4427,-4.2061,1,0,0
-0.71,-0.4866,0.5452,1.0382,-2.084,-3.458,1,0,0
-0.6877,-0.4922,0.5642,1.9847,-2.2366,-1.6641,1,0,0
-0.6799,-0.4822,0.5745,3.5267,0.3511,-1.6718,1,0,0
-0.6855,-0.4675,0.5762,4.6565,2.8015,-2.8626,1,0,0
-0.7014,-0.4731,0.5698,4.8397,3.6565,-4.5878,1,0,0
-0.7139,-0.4692,0.5549,3.9084,2.5267,-4.8473,1,0,0
-0.7185,-0.4751,0.5447,2.2366,-0.4046,-3.6336,1,0,0
-0.7051,-0.4746,0.5493,0.374,-2.3893,-1.6794,1,0,0
-0.6948,-0.4712,0.5703,-2.0534,-2.5267,0.1832,1,0,0
-0.689,-0.47,0.5686,-2.9618,-1.5344,1.1145,1,0,0
-0.6936,-0.4768,0.5662,-3.3053,-0.2672,1.0,1,0,0
-0.6963,-0.467,0.563,-2.6183,0.084,0.4885,1,0,0
-0.6934,-0.4702,0.5586,-2.0,-0.0382,0.4885,1,0,0
-0.6985,-0.4639,0.5581,-1.8321,0.8855,1.0687,1,0,0
-0.7007,-0.4575,0.5637,-2.3511,0.9618,1.8473,1,0,0
-0.7026,-0.4431,0.5659,-3.9313,1.1679,2.2366,1,0,0
-0.7034,-0.4475,0.561,-5.5115,1.1145,0.9389,1,0,0
-0.7087,-0.4609,0.5496,-4.9924,0.0,0.0076,1,0,0
-0.7124,-0.4658,0.5552,-3.0,-1.2214,-0.4427,1,0,0
-0.7046,-0.4619,0.5549,-1.9466,-2.1832,-0.2672,1,0,0
-0.6946,-0.4548,0.5581,-1.8779,-2.4733,0.4351,1,0,0
-0.6948,-0.4417,0.5615,-2.6412,-1.3588,0.5573,1,0,0
-0.7051,-0.4397,0.5554,-4.0763,-1.3206,-0.8321,1,0,0
-0.7051,-0.4463,0.551,-5.2061,-1.9542,-2.1298,1,0,0
-0.7053,-0.4585,0.5518,-5.6107,-3.2977,-2.4809,1,0,0
-0.7041,-0.4614,0.5437,-5.0153,-4.5267,-2.6641,1,0,0
-0.6951,-0.4531,0.5466,-5.7939,-5.8473,-2.8244,1,0,0
-0.7017,-0.4424,0.5515,-6.9313,-6.1756,-4.2061,1,0,0
-0.6919,-0.4412,0.5532,-9.9389,-7.1832,-4.916,1,0,0
-0.7017,-0.4226,0.5417,-14.5649,-9.5344,-4.5954,1,0,0
-0.6997,-0.4707,0.5249,-16.9237,-9.9618,-6.0611,1,0,0
-0.6924,-0.5173,0.5359,-12.1145,-11.8321,-5.8092,1,0,0
-0.7014,-0.4854,0.5569,-10.2366,-12.4275,-6.8855,1,0,0
-0.6716,-0.4795,0.5852,-9.9542,-9.0992,-8.6794,1,0,0
-0.6719,-0.478,0.5889,-8.4351,-6.4198,-8.0382,1,0,0
-0.6772,-0.5068,0.5637,-6.9008,-4.8779,-8.5802,1,0,0
-0.6846,-0.5015,0.563,-4.8473,-4.3664,-8.0992,1,0,0
-0.6926,-0.5117,0.5647,-2.9771,-4.7099,-6.1603,1,0,0
-0.6765,-0.512,0.5706,-0.4885,-4.0611,-3.9313,1,0,0
-0.6738,-0.4854,0.5803,1.3511,-3.0534,-2.2672,1,0,0
-0.6753,-0.4895,0.5674,1.5573,-1.7099,-1.3969,1,0,0
-0.6819,-0.481,0.5671,1.9084,-1.5038,-1.4504,1,0,0
-0.6892,-0.4734,0.5598,2.0076,-1.6107,-2.4809,1,0,0
-0.6931,-0.4802,0.5569,2.3053,-3.1679,-2.1985,1,0,0
-0.6833,-0.4766,0.5615,1.0076,-4.5038,-1.1527,1,0,0
-0.6785,-0.4651,0.572,-0.0305,-4.5115,-0.4275,1,0,0
-0.6702,-0.46,0.5808,-2.0611,-2.9313,-0.5649,1,0,0
-0.6765,-0.4639,0.5869,-3.4122,-0.9237,-1.7099,1,0,0
-0.6802,-0.4685,0.5723,-4.5115,-0.8015,-2.9084,1,0,0
-0.6792,-0.4788,0.5627,-5.1603,-0.6336,-3.4809,1,0,0
-0.6829,-0.5022,0.5649,-3.5115,-0.7252,-2.8855,1,0,0
-0.688,-0.4902,0.5657,-1.687,-1.0916,-3.1908,1,0,0
-0.6831,-0.4941,0.5645,-0.0382,-1.6947,-3.4351,1,0,0
-0.6768,-0.4839,0.5708,0.7939,-1.4351,-2.5878,1,0,0
-0.6694,-0.4709,0.574,0.0076,-0.7176,-2.1145,1,0,0
-0.6748,-0.4788,0.5693,-2.0382,-0.3588,-1.626,1,0,0
-0.6848,-0.4753,0.562,-3.374,-0.8931,-2.0153,1,0,0
-0.6826,-0.4907,0.564,-3.4885,-1.2366,-2.3969,1,0,0
-0.6821,-0.5002,0.5569,-2.4656,-2.2214,-2.5344,1,0,0
-0.6785,-0.4944,0.5659,-1.4351,-2.2824,-2.5878,1,0,0
-0.6753,-0.4963,0.5652,-0.9542,-2.2977,-2.4504,1,0,0
-0.6743,-0.4934,0.5669,-1.0992,-1.7405,-2.1069,1,0,0
-0.668,-0.4927,0.5667,-1.374,-0.5191,-1.374,1,0,0
-0.6746,-0.4988,0.5679,-0.2443,-0.2519,-0.9084,1,0,0
-0.679,-0.4915,0.5684,-0.2977,-0.8473,-1.2137,1,0,0
-0.6685,-0.5024,0.5869,-0.2519,-0.5038,0.2214,1,0,0
-0.6648,-0.5044,0.5947,0.5038,0.9389,1.3817,1,0,0
-0.6677,-0.5073,0.6035,3.2824,2.6794,2.9542,1,0,0
-0.6689,-0.4956,0.6082,3.6183,5.6718,3.3893,1,0,0
-0.6855,-0.4888,0.592,2.4504,7.3588,5.1832,1,0,0
-0.6926,-0.4749,0.5842,1.6641,6.9924,5.7481,1,0,0
-0.6899,-0.4658,0.5679,-0.2443,5.6641,4.7328,1,0,0
-0.6907,-0.4646,0.5579,-0.5038,4.7023,2.5496,1,0,0
-0.6973,-0.4761,0.5657,-0.2137,2.9695,0.9847,1,0,0
-0.6929,-0.4749,0.5623,-0.2366,1.8702,0.084,1,0,0
-0.689,-0.5085,0.5664,1.8092,1.1298,1.4046,1,0,0
-0.6863,-0.512,0.5723,6.4351,1.0076,3.8092,1,0,0
-0.6775,-0.4966,0.5562,9.2672,0.9313,4.5267,1,0,0
-0.6567,-0.5251,0.55,10.2672,2.1832,-0.374,1,0,0
-0.7073,-0.4585,0.564,8.4351,3.8015,2.1298,1,0,0
-0.6487,-0.4656,0.5901,3.0382,4.6031,3.3664,1,0,0
-0.6575,-0.4758,0.6121,1.0305,9.7099,6.5115,1,0,0
-0.6851,-0.4861,0.6028,0.5649,12.3359,7.5496,1,0,0
-0.6997,-0.4846,0.5906,0.7252,12.687,7.0229,1,0,0
-0.7043,-0.48,0.5718,0.8855,11.0763,5.8473,1,0,0
-0.6995,-0.4695,0.5681,-0.5191,9.6183,4.3817,1,0,0
-0.6794,-0.4883,0.5806,-2.3893,10.4198,5.2977,1,0,0
-0.6709,-0.5051,0.5923,-0.0076,14.5115,7.5725,1,0,0
-0.6672,-0.4907,0.5952,3.145,18.7939,9.458,1,0,0
-0.6804,-0.4839,0.5732,3.7099,22.9084,9.7481,1,0,0
-0.7012,-0.4441,0.5562,2.9924,24.7863,8.0305,1,0,0
-0.7222,-0.4285,0.5398,0.1603,24.458,5.1756,1,0,0
-0.7253,-0.4165,0.5332,-4.855,21.7786,3.2214,1,0,0
-0.7058,-0.4578,0.5518,-9.4275,21.3588,6.0611,1,0,0
-0.6848,-0.4614,0.5657,-9.229,23.2519,8.3664,1,0,0
-0.8523,-0.4905,0.5195,-9.458,26.4046,8.2137,1,0,0
-0.738,-0.4485,0.52,-7.5649,25.0076,7.0382,1,0,0
-0.7395,-0.4448,0.4956,-6.8321,22.2214,4.5191,1,0,0
-0.7563,-0.4619,0.4902,-5.9466,17.7176,3.3817,1,0,0
-0.7461,-0.4585,0.4976,-4.5115,15.9542,3.9008,1,0,0
-0.7393,-0.4419,0.4905,-4.3435,14.3435,4.3206,1,0,0
-0.7368,-0.4114,0.4905,-4.8473,13.2977,2.9618,1,0,0
-0.7537,-0.4194,0.4819,-6.4427,10.9695,-0.374,1,0,0
-0.7583,-0.4451,0.4731,-5.626,8.3435,-2.2824,1,0,0
-0.7573,-0.4565,0.4702,-3.771,6.0458,-2.0687,1,0,0
-0.7563,-0.4617,0.458,-2.1603,2.9466,-1.7557,1,0,0
-0.7258,-0.4692,0.4922,0.1298,2.2595,0.0382,1,0,0
-0.7354,-0.4563,0.4883,2.2443,2.9389,0.8626,1,0,0
-0.7478,-0.4329,0.4805,2.6031,1.7939,-0.4809,1,0,0
-0.7581,-0.4272,0.4673,0.9389,-0.8244,-2.7557,1,0,0
-0.752,-0.4485,0.481,-1.1374,-3.5115,-3.7252,1,0,0
-0.7449,-0.4629,0.4919,-1.687,-4.7557,-2.4504,1,0,0
-0.7478,-0.4639,0.4954,-0.2824,-5.9618,-2.2366,1,0,0
-0.7222,-0.4768,0.5264,-0.4351,-5.4275,-1.5878,1,0,0
-0.7163,-0.4641,0.5452,-0.2901,-1.6183,-0.1832,1,0,0
-0.7307,-0.4612,0.533,-0.5038,0.5802,-1.1603,1,0,0
-0.7449,-0.457,0.5168,-1.4504,0.2366,-1.8473,1,0,0
-0.7559,-0.4558,0.5083,-2.5878,-1.2977,-1.7786,1,0,0
-0.7473,-0.4648,0.5195,-1.9618,-3.1603,-1.8931,1,0,0
-0.7283,-0.4746,0.5222,-1.9618,-3.1145,-1.2137,1,0,0
-0.7253,-0.4578,0.5205,-2.4046,-2.1832,-0.2824,1,0,0
-0.7241,-0.4592,0.5334,-2.145,-0.4275,-0.145,1,0,0
-0.7336,-0.4504,0.5222,-1.8473,1.229,-0.4351,1,0,0
-0.7461,-0.4509,0.5081,-1.6183,0.7328,-1.3206,1,0,0
-0.7542,-0.4512,0.5027,-1.8702,-1.2901,-1.542,1,0,0
-0.7517,-0.4507,0.4988,-1.3511,-2.8473,-1.8702,1,0,0
-0.7517,-0.4517,0.4949,-0.6794,-4.8321,-2.5191,1,0,0
-0.7458,-0.4475,0.4934,1.0,-6.4656,-3.3969,1,0,0
-0.7412,-0.4507,0.4939,1.626,-7.9466,-4.542,1,0,0
-0.738,-0.4373,0.4854,1.0076,-9.2672,-5.2137,1,0,0
-0.7222,-0.4517,0.5164,-0.916,-10.3511,-5.6947,1,0,0
-0.699,-0.4321,0.5417,-3.9389,-7.3282,-4.9389,1,0,0
-0.6948,-0.436,0.5601,-6.6947,-2.5191,-6.5191,1,0,0
-0.718,-0.4631,0.5356,-8.2748,1.1221,-9.4046,1,0,0
-0.7449,-0.4641,0.5127,-7.1069,-0.9695,-10.2748,1,0,0
-0.7395,-0.4763,0.5325,-8.4809,-2.313,-9.6336,1,0,0
-0.7349,-0.4985,0.5315,-8.1221,-2.9847,-7.3359,1,0,0
-0.73,-0.5093,0.5374,-5.5878,-2.6489,-4.9389,1,0,0
-0.7212,-0.4985,0.5291,-2.7328,-1.6336,-2.5725,1,0,0
-0.7195,-0.4788,0.5234,-1.8473,-0.6336,-1.7557,1,0,0
-0.7261,-0.4761,0.5229,-1.2137,-0.2748,-1.3893,1,0,0
-0.7234,-0.4797,0.5171,-0.3969,-0.5191,-0.3969,1,0,0
-0.7168,-0.4695,0.5288,-0.9237,1.374,0.6794,1,0,0
-0.7192,-0.4563,0.5237,-1.5725,2.4656,0.7786,1,0,0
-0.728,-0.4626,0.5156,-2.4656,3.1527,-0.2672,1,0,0
-0.7334,-0.4692,0.5117,-3.2443,2.7405,-0.1069,1,0,0
-0.7327,-0.4905,0.512,-2.3282,1.5038,0.4198,1,0,0
-0.731,-0.4753,0.5095,-0.8015,0.8626,2.0,1,0,0
-0.7251,-0.4636,0.5256,-0.3664,0.3282,1.2137,1,0,0
-0.7102,-0.4668,0.5361,-1.4733,2.7405,1.9847,1,0,0
-0.7229,-0.4797,0.5288,-1.626,4.5496,3.7863,1,0,0
-0.7334,-0.4783,0.5195,-0.5802,4.8931,4.9084,1,0,0
-0.7463,-0.4553,0.5164,-0.9008,3.9237,4.2672,1,0,0
-0.741,-0.4714,0.5115,-0.5878,1.8855,4.3282,1,0,0
-0.7332,-0.4775,0.5264,0.0076,1.0076,5.1908,1,0,0
-0.7266,-0.478,0.5205,1.1298,1.458,5.4427,1,0,0
-0.7339,-0.4836,0.5234,3.7252,2.7405,4.6412,1,0,0
-0.7334,-0.489,0.5281,6.2672,4.0382,4.3053,1,0,0
-0.7292,-0.4141,0.5259,5.374,5.1221,4.0763,1,0,0
-0.7146,-0.4983,0.4966,5.2366,5.9695,0.6031,1,0,0
-0.7771,-0.4082,0.4792,3.6565,3.5267,0.1908,1,0,0
-0.7378,-0.4321,0.4934,-1.855,0.5878,-1.313,1,0,0
-0.7419,-0.4348,0.5039,-4.3588,-0.0382,0.1603,1,0,0
-0.7288,-0.4443,0.5144,-7.0534,0.2901,0.3053,1,0,0
-0.7244,-0.4495,0.5193,-7.7405,1.313,0.4198,1,0,0
-0.7305,-0.4546,0.5193,-7.4351,2.1221,-0.3817,1,0,0
-0.7417,-0.4487,0.5149,-7.2824,1.8702,-0.9847,1,0,0
-0.7495,-0.4321,0.5039,-8.6107,0.626,-2.7634,1,0,0
-0.7483,-0.4434,0.5012,-11.2061,-1.5038,-3.7176,1,0,0
-0.7427,-0.425,0.5222,-13.3969,-1.2519,-5.8244,1,0,0
-0.7217,-0.4932,0.5215,-14.2519,1.0153,-6.2672,1,0,0
-0.7271,-0.53,0.5173,-7.7176,3.4122,-4.0611,1,0,0
-0.738,-0.4902,0.5117,-0.7328,3.687,-3.2214,1,0,0
-0.7412,-0.4783,0.5095,0.9542,2.0916,-2.626,1,0,0
-0.7393,-0.4775,0.4917,2.5267,1.3588,-0.1221,1,0,0
-0.7441,-0.448,0.4976,1.8168,0.1985,0.1374,1,0,0
