ax,ay,az,gx,gy,gz,left_click,right_click
-0.1387,0.1062,1.0166,-5.0687,1.6107,0.8397,0,0,0
-0.1399,0.1035,1.0107,-4.0916,1.2672,0.6565,0,0,0
-0.1382,0.1021,1.0222,-3.6336,0.9466,0.2214,0,0,0
-0.1421,0.1045,1.0154,-3.3206,0.2595,-0.6412,0,0,0
-0.144,0.0942,1.0012,-2.7481,0.0534,-1.2824,0,0,0
-0.1489,0.093,0.9976,-2.3282,-1.2061,-1.0611,0,0,0
-0.1511,0.0911,0.9963,-2.7557,-2.5038,-0.3893,0,0,0
-0.1494,0.094,1.0088,-3.374,-3.1221,0.2519,0,0,0
-0.1394,0.0945,1.0186,-3.1298,-2.2061,0.6641,0,0,0
-0.1377,0.0977,1.0186,-2.2824,-0.1145,0.6489,0,0,0
-0.1343,0.0984,1.0078,-2.145,1.0916,0.4351,0,0,0
-0.1433,0.0879,1.0029,-2.6565,2.0,-0.4427,0,0,0
-0.1484,0.0864,0.9917,-3.6565,0.5573,-0.1374,0,0,0
-0.1602,0.0818,1.0054,-3.1985,-0.9771,0.4351,0,0,0
-0.147,0.0859,1.01,-3.1221,-1.7939,1.4656,0,0,0
-0.1467,0.0918,1.0066,-1.9847,-2.2595,2.2519,0,0,0
-0.1384,0.083,1.0076,-1.4198,-2.6794,2.2672,0,0,0
-0.137,0.0908,0.9963,-1.2901,-2.5191,1.9542,0,0,0
-0.1343,0.0891,0.998,-2.5267,-2.3282,1.2214,0,0,0
-0.1372,0.085,1.009,-4.1069,-2.0611,1.1145,0,0,0
-0.1372,0.0806,1.0149,-5.5954,-1.084,1.3511,0,0,0
-0.1418,0.0781,1.011,-6.5649,-0.5191,2.1679,0,0,0
-0.1414,0.0754,1.0159,-7.1832,-0.0229,3.2366,0,0,0
-0.1389,0.0874,1.0205,-6.2061,-0.6794,3.5344,0,0,0
-0.1306,0.0896,1.0215,-6.0076,-1.6183,2.1374,0,0,0
-0.127,0.0808,1.031,-5.4885,-1.8092,0.8702,0,0,0
-0.134,0.0798,1.0269,-4.1069,-1.916,0.5878,0,0,0
-0.1445,0.0767,1.03,-3.687,-1.8397,0.8855,0,0,0
-0.145,0.0835,1.0276,-3.1069,-2.0763,1.1374,0,0,0
-0.1448,0.0874,1.0283,-2.3206,-1.8473,1.6183,0,0,0
-0.1404,0.0952,1.0273,-2.3969,-1.084,1.2977,0,0,0
-0.1423,0.0889,1.0181,-2.5115,-0.0458,1.4351,0,0,0
-0.1431,0.0906,1.0071,-3.2137,-0.0687,1.6031,0,0,0
-0.1511,0.0967,1.0171,-4.5649,-0.2977,1.9847,0,0,0
-0.1421,0.0964,1.0273,-5.3588,-0.1679,2.8473,0,0,0
-0.1301,0.1006,1.0332,-5.2824,0.9237,3.2214,0,0,0
-0.1189,0.0957,1.0449,-5.0458,2.4733,2.3664,0,0,0
-0.1204,0.0947,1.0369,-4.5496,3.4427,1.0916,0,0,0
-0.1335,0.0903,1.0317,-3.5344,2.7863,0.2061,0,0,0
-0.1406,0.0874,1.0295,-3.0382,1.8168,-0.3511,0,0,0
-0.1482,0.0706,1.022,-1.8321,0.7252,0.9695,0,0,0
-0.1609,0.052,1.0154,-1.8626,0.084,3.2061,0,0,0
-0.1819,0.0547,1.0242,-4.8931,-0.8397,6.1221,0,0,0
-0.1892,0.0393,1.0247,-7.1756,-0.2977,11.0305,0,0,0
-0.1853,0.0347,1.0249,-10.2595,1.6641,17.3893,0,0,0
-0.1897,0.0232,1.0247,-13.9542,3.6718,23.7405,0,0,0
-0.2,0.0151,1.0203,-18.0153,5.4198,29.7557,0,0,0
-0.2395,-0.0271,0.9976,-23.6107,5.1221,38.4351,0,0,0
-0.2434,-0.0142,0.9746,-28.7328,1.8473,50.1298,0,0,0
-0.2078,-0.0122,1.0005,-35.0916,-2.2137,63.6489,0,0,0
-0.1582,0.0088,1.033,-36.1832,-3.4504,72.6336,0,0,0
-0.1057,0.0017,1.0862,-33.1985,-0.8779,76.7634,0,0,0
-0.0859,0.0349,1.0774,-31.7099,1.1985,77.229,0,0,0
-0.1021,-0.0029,1.0576,-31.0534,1.5725,76.1221,0,0,0
-0.1602,-0.0117,0.981,-32.0687,-2.5802,77.1145,0,0,0
-0.1663,-0.0215,0.9768,-36.1069,-11.4198,82.7939,0,0,0
-0.1248,-0.0417,0.9531,-37.7252,-13.542,92.6947,0,0,0
-0.1123,0.0093,0.9895,-42.6336,-13.9389,100.2061,0,0,0
-0.0674,0.0107,1.0381,-42.855,-9.4046,100.8473,0,0,0
-0.0474,0.043,1.0254,-39.8397,-3.1374,97.0611,0,0,0
-0.0168,0.0513,1.0305,-38.2443,2.2748,89.916,0,0,0
0.0012,0.0903,1.0608,-37.4962,7.1908,81.1679,0,0,0
-0.0073,0.0703,1.0911,-35.0458,12.9084,69.3511,0,0,0
-0.0352,0.0823,1.0967,-30.5573,17.9237,57.3511,0,0,0
-0.073,0.0251,1.1074,-25.458,21.9084,48.8855,0,0,0
-0.134,0.0081,1.0659,-20.4275,24.2901,44.2672,0,0,0
-0.1897,-0.0364,1.0181,-19.9084,22.6489,45.9847,0,0,0
-0.228,-0.0347,0.967,-21.0458,19.1069,50.4504,0,0,0
-0.1963,-0.0378,0.9524,-20.9084,14.6489,57.855,0,0,0
-0.1409,0.012,0.9866,-18.8397,11.2901,60.8702,0,0,0
-0.0979,0.0508,1.022,-13.9618,8.542,55.6565,0,0,0
-0.071,0.0754,1.0364,-9.4885,6.7099,44.1527,0,0,0
-0.0779,0.0596,1.0276,-5.9695,4.4733,31.1145,0,0,0
-0.1233,0.0303,1.0308,-5.8626,1.9237,22.5573,0,0,0
-0.1448,0.0352,1.0117,-2.8015,-0.4351,18.4504,0,0,0
-0.1433,0.0239,1.002,-1.3817,-2.0,18.8473,0,0,0
-0.1304,0.0486,1.0073,0.5344,-2.9695,18.4656,0,0,0
-0.1111,0.0674,1.01,2.9084,-1.4809,14.2366,0,0,0
-0.0979,0.0813,1.0134,3.8015,0.3511,8.0763,0,0,0
-0.0837,0.082,1.0005,4.2977,1.542,0.1908,0,0,0
-0.094,0.0588,1.0022,2.7557,1.1069,-6.7863,0,0,0
-0.1211,0.0693,0.9988,4.0763,0.0534,-12.9618,0,0,0
-0.1541,0.0276,1.0,2.5344,-0.1298,-16.8321,0,0,0
-0.2036,-0.0051,0.9807,0.4046,-0.855,-15.5191,0,0,0
-0.2305,-0.0154,0.968,-2.1908,-2.2748,-11.1145,0,0,0
-0.2378,-0.0388,0.9827,-4.5802,-2.4885,-4.0763,0,0,0
-0.219,-0.0259,0.9968,-3.8397,-1.9924,2.2901,0,0,0
-0.1875,0.0073,1.0122,-3.9084,0.3511,4.7405,0,0,0
-0.1733,0.0044,1.0317,-3.5344,2.9008,3.4962,0,0,0
-0.1731,0.0112,1.0232,-2.916,3.9466,0.6183,0,0,0
-0.1746,-0.0029,1.0005,-2.4198,3.0763,-2.2366,0,0,0
-0.1899,-0.0088,1.0012,-3.4122,1.5649,-3.5802,0,0,0
-0.1968,-0.0215,0.9812,-4.5496,-0.458,-3.2443,0,0,0
-0.2112,-0.0381,0.9922,-4.4046,-2.9313,-0.5267,0,0,0
-0.2063,-0.0344,0.9897,-4.2977,-4.9847,3.4733,0,0,0
-0.1912,-0.0249,1.0234,-4.1832,-6.7939,6.6718,0,0,0
-0.1636,-0.0051,1.0359,-3.1756,-6.2672,7.5954,0,0,0
-0.1387,0.0044,1.042,-2.3664,-4.5802,5.7863,0,0,0
-0.1252,0.0044,1.0291,-1.5496,-2.7099,2.687,0,0,0
-0.1382,-0.0044,1.0259,-1.8473,-1.3435,0.6489,0,0,0
-0.1584,-0.0159,1.0281,-3.4275,-1.5344,-0.2519,0,0,0
-0.1599,-0.0208,1.0188,-3.0229,-3.0153,0.9695,0,0,0
-0.1548,-0.0205,1.03,-2.3435,-4.1527,2.5878,0,0,0
-0.1418,-0.0115,1.0425,-1.4733,-4.1069,3.5344,0,0,0
-0.1306,0.0068,1.0403,-2.1145,-3.458,2.2366,0,0,0
-0.1248,0.0112,1.0386,-2.7099,-1.9542,0.5344,0,0,0
-0.1265,0.0078,1.043,-3.0153,-0.3206,-1.4733,0,0,0
-0.1382,0.0029,1.03,-2.1527,1.6336,-2.7176,0,0,0
-0.1494,-0.0061,1.0227,-1.9542,2.5725,-2.8321,0,0,0
-0.1675,-0.0068,1.0066,-1.2748,1.2977,-2.1374,0,0,0
-0.1716,-0.0134,1.0132,-1.6794,-0.8015,-1.5496,0,0,0
-0.1768,-0.0134,1.0093,-1.916,-2.0229,-0.7176,0,0,0
-0.1675,-0.0107,1.0117,-1.0076,-2.3511,0.0,0,0,0
-0.1658,-0.002,1.0098,-1.0687,-1.8015,0.9924,0,0,0
-0.1589,0.0083,1.0125,-1.8397,-1.7481,1.0916,0,0,0
-0.145,0.0051,1.0239,-2.3893,-0.9847,0.4962,0,0,0
-0.147,0.0037,1.0247,-2.145,0.1145,-0.8473,0,0,0
-0.146,0.0024,1.0269,-1.855,0.6412,-2.3511,0,0,0
-0.1606,0.0007,1.012,-2.4198,0.6641,-2.6565,0,0,0
-0.1641,-0.001,1.0156,-3.1374,-0.4656,-2.4809,0,0,0
-0.1704,-0.0068,1.0122,-3.3053,-0.7252,-0.9618,0,0,0
-0.1646,-0.0015,1.0186,-2.4656,-0.9618,0.5038,0,0,0
-0.1548,-0.0032,1.0269,-1.8397,-0.6336,1.4046,0,0,0
-0.1479,0.0051,1.0273,-1.6794,-0.6336,1.5802,0,0,0
-0.1421,0.0029,1.0144,-0.916,-1.0,0.4504,0,0,0
-0.1445,-0.0032,1.0134,-0.1221,-1.0458,-0.626,0,0,0
-0.1404,0.0063,1.0151,-1.0,-0.9847,-1.1527,0,0,0
-0.1392,-0.0002,1.0139,-2.1145,0.2443,-1.7786,0,0,0
-0.1426,-0.0017,1.0144,-2.1908,1.3893,-2.0229,0,0,0
-0.1511,0.0029,1.0159,-3.0992,1.2901,-2.3053,0,0,0
-0.1489,-0.0037,1.0149,-3.2519,1.4656,-2.0687,0,0,0
-0.1562,-0.0056,1.0027,-2.9542,0.6489,-1.9618,0,0,0
-0.1643,-0.0068,0.9954,-3.4656,-1.4275,-1.0687,0,0,0
-0.1658,-0.0139,1.0164,-4.5725,-3.1374,-0.2443,0,0,0
-0.1558,-0.0205,1.0276,-0.7099,-2.1679,2.0992,0,0,0
-0.1445,0.002,1.0293,-2.5573,-1.7557,1.7557,0,0,0
-0.1423,0.0066,1.0332,-1.1069,-1.1298,1.313,0,0,0
-0.1301,0.0044,1.0251,-1.374,-0.2595,-0.9084,0,0,0
-0.1318,0.0029,1.0244,-1.5725,-0.0916,-2.4962,0,0,0
-0.1384,-0.0017,1.0315,-1.7863,0.9389,-3.7557,0,0,0
-0.1392,0.0007,1.04,-1.9389,2.4504,-4.5802,0,0,0
-0.147,0.0027,1.0146,-0.6489,3.4275,-5.2214,0,0,0
-0.1533,0.0066,1.0098,-1.0687,2.8931,-5.687,0,0,0
-0.1594,-0.0137,0.9961,0.2443,1.3206,-5.3435,0,0,0
-0.1685,-0.0044,0.9973,-0.8015,-0.8244,-5.7634,0,0,0
-0.1636,-0.0076,1.0017,-1.084,-2.5878,-5.1145,0,0,0
-0.1626,-0.0012,1.0127,-1.2214,-2.9008,-4.4733,0,0,0
-0.1516,0.0027,1.0361,-0.9466,-1.458,-4.7786,0,0,0
-0.1445,0.0088,1.0361,0.7634,0.4122,-6.0229,0,0,0
-0.1387,0.011,1.0164,2.7481,0.5267,-7.8931,0,0,0
-0.137,0.0168,0.9985,3.0992,-0.5954,-10.4962,0,0,0
-0.1357,0.0166,1.0015,3.2214,-3.1679,-13.0534,0,0,0
-0.1394,0.0117,1.0181,4.2595,-4.4656,-15.4046,0,0,0
-0.1274,0.0208,1.032,5.6107,-4.1374,-18.3359,0,0,0
-0.1106,0.0342,1.0378,7.1374,-2.229,-21.2824,0,0,0
-0.1047,0.0342,1.0437,9.6718,0.3435,-25.084,0,0,0
-0.1011,0.0352,1.0342,12.4198,2.1832,-29.2443,0,0,0
-0.1035,0.0403,1.0276,13.4351,3.0305,-33.5954,0,0,0
-0.1145,0.031,1.0488,12.4122,3.374,-38.4351,0,0,0
-0.1191,0.0281,1.0603,12.7481,4.9771,-42.2977,0,0,0
-0.1436,-0.0007,1.0981,14.5878,8.4122,-43.2061,0,0,0
-0.1682,-0.002,1.1091,18.3511,12.3893,-42.3817,0,0,0
-0.176,-0.0085,1.0981,22.8473,16.4046,-39.4427,0,0,0
-0.1611,0.0081,1.0857,25.4962,19.8855,-36.7099,0,0,0
-0.1626,-0.0015,1.0535,26.8321,24.4656,-36.3817,0,0,0
-0.1577,0.0195,1.0361,28.7557,28.0153,-37.6565,0,0,0
-0.1792,0.0225,1.0076,27.5114,30.0458,-39.0076,0,0,0
-0.196,0.0054,1.021,22.8168,32.1527,-37.8397,0,0,0
-0.2114,0.0029,1.0044,19.3817,34.3817,-35.4733,0,0,0
-0.2373,0.0266,0.9702,16.3664,34.4962,-29.9847,0,0,0
-0.2322,-0.0132,0.9634,12.8397,31.0076,-26.5267,0,0,0
-0.2529,0.0583,0.9595,10.6412,25.6412,-22.374,0,0,0
-0.2344,-0.0073,0.9941,11.5115,26.3893,-18.4122,0,0,0
-0.2446,0.0671,0.9514,11.1756,22.5191,-16.374,0,0,0
-0.2112,0.0073,0.9563,12.6031,22.4275,-15.0687,0,0,0
-0.2454,0.0752,0.9397,11.4275,15.7176,-13.6565,0,0,0
-0.2217,0.0349,1.031,10.6183,15.4656,-15.4809,0,0,0
-0.2317,0.0466,1.0415,13.9084,18.3206,-15.4656,0,0,0
-0.2307,0.0608,1.0403,15.8015,21.5649,-15.5802,0,0,0
-0.2371,0.0642,0.9937,17.0,20.6183,-14.2366,0,0,0
-0.2202,0.0732,1.0034,18.1756,19.0,-16.8015,0,0,0
-0.23,0.0759,0.97,18.5267,15.2366,-17.8397,0,0,0
-0.2356,0.083,0.98,17.1679,10.4427,-20.6641,0,0,0
-0.2388,0.0776,0.9841,17.7557,7.6718,-22.7099,0,0,0
-0.2429,0.0864,0.9966,17.5344,6.687,-24.7786,0,0,0
-0.2517,0.0662,0.9841,16.5344,6.4962,-25.2366,0,0,0
-0.26,0.0923,0.9673,12.7405,4.855,-26.6412,0,0,0
-0.2527,0.0771,0.9685,11.1298,4.6031,-28.2901,0,0,0
-0.2639,0.0874,0.9851,7.5267,4.7176,-29.084,0,0,0
-0.27,0.074,0.9761,5.2519,4.458,-28.0916,0,0,0
-0.2712,0.0776,0.9861,3.916,4.7252,-28.5802,0,0,0
-0.2651,0.0759,0.9912,3.7786,5.9389,-27.8397,0,0,0
-0.2612,0.0869,0.9976,3.1527,7.084,-29.2748,0,0,0
-0.2813,0.0608,0.9697,2.916,6.8244,-27.4275,0,0,0
-0.2954,0.0854,0.9946,1.145,5.2137,-27.0687,0,0,0
-0.2761,0.0535,1.0142,2.4427,6.5573,-26.6336,0,0,0
-0.2717,0.0669,1.0183,4.5038,8.9618,-25.5344,0,0,0
-0.2668,0.0735,1.0151,5.6794,10.5878,-26.4427,0,0,0
-0.2625,0.0767,1.0098,7.2824,10.7176,-27.771,0,0,0
-0.2715,0.0825,1.0554,8.2366,12.1527,-29.5802,0,0,0
-0.2795,0.0588,1.0771,11.0458,15.8397,-30.9008,0,0,0
-0.2839,0.0684,1.0867,14.2366,20.9542,-30.7939,0,0,0
-0.2791,0.062,1.0972,18.4809,28.3817,-32.7023,0,0,0
-0.2935,0.0562,1.0432,24.145,32.229,-29.687,0,0,0
-0.3088,0.0979,1.0105,25.313,30.3206,-30.0763,0,0,0
-0.3044,0.0229,0.9766,29.1145,30.0458,-28.9847,0,0,0
-0.3379,0.0906,0.9683,29.1527,26.3664,-27.0229,0,0,0
-0.3389,0.0696,0.9873,28.2595,25.5267,-26.2061,0,0,0
-0.344,0.074,0.9749,27.6412,27.855,-24.0229,0,0,0
-0.3433,0.0786,0.9636,25.5267,30.2137,-21.0992,0,0,0
-0.3557,0.0859,0.9407,23.6794,31.2977,-18.0076,0,0,0
-0.3599,0.0916,0.925,22.4275,31.8092,-15.9466,0,0,0
-0.3557,0.0962,0.906,21.458,30.6183,-14.2672,0,0,0
-0.3506,0.1033,0.8787,19.1679,25.7328,-13.8473,0,0,0
-0.3489,0.1257,0.8826,16.4656,19.7863,-15.6031,0,0,0
-0.3433,0.1265,0.8848,14.3435,15.1145,-18.4046,0,0,0
-0.3455,0.1338,0.9185,13.0916,13.084,-20.7481,0,0,0
-0.3494,0.1235,0.9302,13.1908,12.5878,-21.3511,0,0,0
-0.3577,0.1248,0.9336,13.4351,12.9466,-21.5267,0,0,0
-0.3711,0.1223,0.9336,12.9924,13.3893,-21.6947,0,0,0
-0.3831,0.1172,0.9116,11.5725,12.7634,-20.8397,0,0,0
-0.3965,0.1121,0.8948,9.0458,10.6641,-20.1756,0,0,0
-0.3411,0.0471,0.9197,6.9466,14.855,-26.0,0,0,0
-0.3916,0.123,0.8745,2.2137,12.5954,-22.0076,0,0,0
-0.4265,0.1257,0.8914,-2.145,7.4275,-18.8702,0,0,0
-0.4148,0.0928,0.9253,0.8244,5.4733,-16.8626,0,0,0
-0.4048,0.105,0.9336,3.4427,5.8473,-16.0305,0,0,0
-0.3992,0.1089,0.9346,2.0534,5.7405,-15.6107,0,0,0
-0.4009,0.1082,0.9272,1.2595,5.8626,-15.2519,0,0,0
-0.4004,0.1025,0.9395,1.2366,6.0458,-14.6947,0,0,0
-0.4014,0.105,0.9363,1.8092,6.5573,-14.4351,0,0,0
-0.3992,0.1162,0.9268,2.5954,5.5267,-14.5573,0,0,0
-0.3845,0.2202,0.9656,1.4504,6.0229,-19.9008,0,0,0
-0.3706,0.0806,0.9087,5.8855,7.6183,-19.5038,0,0,0
-0.4128,0.1499,0.9329,1.5649,3.0992,-19.6641,0,0,0
-0.4055,0.1099,0.9687,3.0076,2.6489,-20.2901,0,0,0
-0.3716,0.1299,1.0139,8.0153,7.9466,-23.5954,0,0,0
-0.3789,0.134,0.9343,10.4885,10.084,-22.5649,0,0,0
-0.4065,0.1104,0.937,7.3969,9.6947,-23.3664,0,0,0
-0.4385,0.124,0.9468,6.4733,7.8168,-22.5802,0,0,0
-0.4082,0.0715,0.9492,9.0153,12.3206,-24.1298,0,0,0
-0.4207,0.1138,0.9346,7.7863,13.2214,-21.7099,0,0,0
-0.4397,0.1062,0.9568,5.2672,13.9237,-18.5267,0,0,0
-0.4363,0.0938,0.9878,8.3053,17.2901,-17.4122,0,0,0
-0.4348,0.0881,0.9707,13.4885,20.3282,-15.6107,0,0,0
-0.4487,0.1086,0.9377,15.0763,19.9618,-13.6412,0,0,0
-0.4377,0.0945,0.9321,16.0229,19.4656,-13.7252,0,0,0
-0.4426,0.1223,0.9294,16.2748,18.2672,-13.8779,0,0,0
-0.4377,0.1086,0.9294,16.4885,18.855,-14.5954,0,0,0
-0.4446,0.1157,0.9351,16.8779,19.3206,-14.1679,0,0,0
-0.4541,0.1221,0.9111,16.7557,20.2137,-13.9084,0,0,0
-0.4629,0.1235,0.9102,16.1145,20.8092,-13.3588,0,0,0
-0.467,0.1138,0.9148,15.374,21.1679,-12.2519,0,0,0
-0.4697,0.1199,0.8916,15.6489,21.6412,-11.5573,0,0,0
-0.468,0.1335,0.8718,16.1527,20.0763,-10.6183,0,0,0
-0.4587,0.136,0.8701,14.9237,18.1221,-11.2366,0,0,0
-0.4626,0.1453,0.8623,13.6947,15.1527,-12.3664,0,0,0
-0.4622,0.1492,0.8662,11.3206,12.8168,-14.1298,0,0,0
-0.4697,0.145,0.875,9.1298,11.8702,-14.9466,0,0,0
-0.4797,0.1274,0.8762,8.1756,12.229,-14.5115,0,0,0
-0.4805,0.1316,0.8733,7.8855,12.5725,-13.7557,0,0,0
-0.4797,0.1323,0.8801,7.8168,11.8321,-13.9008,0,0,0
-0.4775,0.1453,0.8813,8.3511,11.1679,-14.4733,0,0,0
-0.4868,0.1433,0.8765,8.7481,9.8244,-14.9084,0,0,0
-0.4871,0.1396,0.8677,10.1145,7.2443,-15.4962,0,0,0
-0.4915,0.1414,0.8757,11.2137,5.084,-16.0382,0,0,0
-0.4856,0.1445,0.8713,11.3359,3.0763,-17.0076,0,0,0
-0.4976,0.1831,0.8679,8.7252,2.4046,-19.2137,0,0,0
-0.4199,0.0188,0.9106,11.3588,10.9618,-26.1603,0,0,0
-0.5159,0.2261,0.8215,6.374,5.2824,-21.2595,0,0,0
-0.4844,0.1641,0.886,3.4122,5.0916,-25.145,0,0,0
-0.4851,0.1077,0.884,11.3893,6.2137,-21.6031,0,0,0
-0.4958,0.1689,0.9155,9.8092,6.3664,-23.7099,0,0,0
-0.4934,0.1365,0.8914,12.3206,5.9237,-24.0153,0,0,0
-0.4978,0.1392,0.9033,18.6794,4.0382,-23.9237,0,0,0
-0.4824,0.1467,0.9475,21.0305,5.0916,-26.7786,0,0,0
-0.4775,0.1499,0.9402,24.7176,8.1527,-28.8397,0,0,0
-0.491,0.1218,0.8984,29.145,8.7252,-28.5802,0,0,0
-0.5178,0.1587,0.9028,29.8702,6.2214,-26.5573,0,0,0
-0.5103,0.144,0.937,33.084,8.3053,-27.9389,0,0,0
-0.498,0.0933,0.9417,37.0305,15.4351,-32.3969,0,0,0
-0.5286,0.1426,0.9055,36.2748,17.5344,-31.6489,0,0,0
-0.5461,0.1602,0.886,34.4046,18.229,-30.1603,0,0,0
-0.5532,0.1294,0.8596,38.2824,18.2748,-26.374,0,0,0
-0.5527,0.1299,0.8677,39.6336,18.3588,-24.4046,0,0,0
-0.5652,0.1614,0.854,38.5115,18.6489,-23.2443,0,0,0
-0.5537,0.1555,0.8362,37.6183,17.0,-23.313,0,0,0
-0.5376,0.1675,0.8513,36.7252,17.5267,-21.8015,0,0,0
-0.5488,0.1748,0.8291,36.6718,17.1985,-21.2214,0,0,0
-0.5586,0.1689,0.8008,35.7023,17.1298,-21.0992,0,0,0
-0.561,0.1838,0.7681,33.626,13.2672,-19.8702,0,0,0
-0.5376,0.239,0.8062,26.8168,13.8473,-25.9008,0,0,0
-0.5508,0.135,0.7378,24.6641,14.1756,-23.4962,0,0,0
-0.6028,0.23,0.7563,14.9389,9.9924,-21.6031,0,0,0
-0.5681,0.1289,0.78,12.542,11.9618,-21.3282,0,0,0
-0.6143,0.186,0.7544,11.542,9.3511,-13.7405,0,0,0
-0.6072,0.1738,0.7883,5.8626,8.5344,-11.1298,0,0,0
-0.5952,0.1521,0.7903,6.8321,9.5878,-8.0916,0,0,0
-0.5881,0.1721,0.8215,6.855,10.9008,-5.6183,0,0,0
-0.5791,0.1731,0.8357,5.7557,12.0763,-4.3893,0,0,0
-0.5671,0.1863,0.8357,7.8168,11.8168,-4.8779,0,0,0
-0.5659,0.1931,0.8252,10.1603,9.916,-5.9237,0,0,0
-0.5618,0.2009,0.8228,11.5573,7.084,-7.626,0,0,0
-0.5625,0.2021,0.8318,12.8626,6.145,-9.0076,0,0,0
-0.5469,0.2085,0.8589,13.8931,8.2137,-9.6718,0,0,0
-0.5562,0.2083,0.8479,16.1145,9.8855,-10.626,0,0,0
-0.5627,0.2166,0.8528,18.229,11.2748,-10.9771,0,0,0
-0.5735,0.2039,0.8142,19.4733,11.1756,-11.7634,0,0,0
-0.5903,0.2061,0.7686,19.5954,8.5573,-12.1069,0,0,0
-0.6118,0.2051,0.749,15.7557,5.0458,-13.0458,0,0,0
-0.6221,0.1931,0.7451,11.6336,3.1069,-12.542,0,0,0
-0.6143,0.2205,0.74,6.0305,2.4962,-11.6107,0,0,0
-0.5459,0.0754,0.7676,1.9389,9.9542,-19.9008,0,0,0
-0.6243,0.1851,0.6353,-4.9847,4.916,-11.5954,0,0,0
-0.6826,0.1838,0.6858,-17.2595,-3.687,-4.1527,0,0,0
-0.6772,0.1038,0.7258,-18.0458,-5.8015,1.4427,0,0,0
-0.6746,0.105,0.7205,-19.1527,-7.1908,7.7405,0,0,0
-0.6697,0.1238,0.6995,-29.1145,-10.9924,12.3588,0,0,0
-0.6516,0.1001,0.6716,-37.458,-15.5878,17.2748,0,0,0
-0.6345,0.0994,0.6624,-42.5191,-20.687,23.0153,0,0,0
-0.6033,0.1082,0.6785,-48.0076,-25.8779,27.2977,0,0,0
-0.5771,0.0942,0.7041,-54.3282,-28.6412,31.313,0,0,0
-0.5837,0.0818,0.7144,-59.0611,-31.0611,36.0382,0,0,0
-0.5986,0.094,0.7004,-66.5191,-36.3359,39.9771,0,0,0
-0.605,0.0691,0.7078,-72.0458,-42.8397,44.3435,0,0,0
-0.616,0.0347,0.7068,-75.5344,-51.9618,52.1908,0,0,0
-0.5969,0.0588,0.7134,-78.1221,-58.9313,60.4656,0,0,0
-0.5632,0.0447,0.7473,-82.6031,-67.9084,68.2672,0,0,0
-0.5149,0.0269,0.8142,-83.5115,-71.6336,75.8779,0,0,0
-0.4851,0.0339,0.8779,-81.5267,-70.5115,81.8397,0,0,0
-0.4556,0.0347,0.894,-77.2672,-70.1603,83.2595,0,0,0
-0.4165,0.0957,0.9521,-74.7557,-66.2824,84.4428,0,0,0
-0.3745,0.0828,0.9678,-69.9237,-58.5954,82.2824,0,0,0
-0.3696,0.1375,0.9548,-67.6794,-57.458,77.687,0,0,0
-0.3718,0.1116,0.9727,-65.8779,-56.0611,71.5878,0,0,0
-0.3792,0.1284,0.9705,-62.0382,-55.4656,66.8168,0,0,0
-0.387,0.1074,0.9841,-60.7786,-53.5115,63.084,0,0,0
-0.3887,0.1055,0.9868,-59.1069,-51.9771,63.9237,0,0,0
-0.3811,0.106,0.9937,-55.3053,-49.7252,65.0382,0,0,0
-0.3599,0.1086,1.0032,-51.0,-47.7176,66.1679,0,0,0
-0.3335,0.1228,1.0195,-46.771,-44.8626,65.5344,0,0,0
-0.3101,0.1289,1.0171,-43.374,-42.1603,62.7939,0,0,0
-0.301,0.1296,1.0144,-39.374,-39.4809,57.771,0,0,0
-0.301,0.1399,0.9919,-35.5954,-39.4427,51.7099,0,0,0
-0.2869,0.1431,1.0085,-33.7252,-40.145,45.3969,0,0,0
-0.2852,0.1421,1.0317,-33.1832,-38.7634,39.8015,0,0,0
-0.2739,0.1431,1.0435,-30.2061,-34.8168,35.5115,0,0,0
-0.2717,0.145,1.0725,-26.6947,-28.5191,31.5573,0,0,0
-0.2659,0.1328,1.0754,-22.2672,-21.229,28.8168,0,0,0
-0.2686,0.124,1.0605,-16.8168,-15.9542,25.3511,0,0,0
-0.2747,0.1304,1.0281,-11.8168,-12.5878,21.7023,0,0,0
-0.2683,0.1267,1.0195,-9.3817,-11.7176,17.9542,0,0,0
-0.272,0.1243,1.0002,-9.2214,-12.1908,14.5878,0,0,0
-0.2866,0.1184,1.0002,-8.4046,-13.0534,11.2901,0,0,0
-0.2959,0.1267,1.0195,-8.8779,-12.8244,7.8779,0,0,0
-0.2959,0.1135,1.0291,-8.0305,-11.3206,6.0305,0,0,0
-0.302,0.1018,1.0286,-5.7634,-9.0992,5.8168,0,0,0
-0.3044,0.1021,0.9976,-3.9695,-8.145,5.5038,0,0,0
-0.3052,0.0962,0.9985,-4.4198,-8.5649,5.1527,0,0,0
-0.3044,0.0962,1.021,-6.7863,-6.6794,4.0687,0,0,0
-0.311,0.0825,1.0315,-7.2977,-3.6107,2.2901,0,0,0
-0.3162,0.073,1.0312,-5.8931,-0.0534,2.0534,0,0,0
-0.324,0.0701,1.0178,-4.855,1.9542,2.7405,0,0,0
-0.3242,0.071,1.0032,-4.4809,3.7939,3.916,0,0,0
-0.3284,0.0667,1.01,-4.4046,4.7786,4.7252,0,0,0
-0.312,0.0701,1.022,-4.1145,5.7176,5.1679,0,0,0
-0.3064,0.0789,1.0322,-3.3893,6.3664,5.6336,0,0,0
-0.2952,0.0881,1.0344,-2.8321,7.0611,4.1985,0,0,0
-0.2822,0.0906,1.0483,-1.5802,8.8779,2.0076,0,0,0
-0.2776,0.0942,1.0789,1.0229,11.5954,-0.3359,0,0,0
-0.2583,0.1106,1.1072,4.3359,16.2061,-4.0534,0,0,0
-0.2415,0.1172,1.1001,7.7328,22.1069,-8.1603,0,0,0
-0.2373,0.1211,1.1108,10.5115,28.084,-13.2061,0,0,0
-0.2493,0.1091,1.0745,13.374,34.229,-18.4046,0,0,0
-0.269,0.0991,1.0256,16.3664,36.542,-21.9618,0,0,0
-0.3018,0.1003,0.979,17.0,34.855,-24.5114,0,0,0
-0.3232,0.0881,0.9548,16.6565,31.8779,-26.1069,0,0,0
-0.3469,0.0808,0.9434,17.1985,28.0458,-25.8321,0,0,0
-0.3599,0.0732,0.9517,16.8779,25.916,-25.5573,0,0,0
-0.3755,0.062,0.939,15.4198,25.542,-23.7328,0,0,0
-0.3877,0.0571,0.9226,14.6947,25.4885,-21.4275,0,0,0
-0.3882,0.0562,0.9004,13.5573,24.1908,-19.1756,0,0,0
-0.3914,0.061,0.8806,11.1527,23.0382,-17.0992,0,0,0
-0.3977,0.0632,0.8718,8.6718,20.8855,-15.0534,0,0,0
-0.3977,0.0615,0.8628,5.9771,18.1679,-13.4427,0,0,0
-0.408,0.0603,0.8555,3.2748,15.4351,-11.2443,0,0,0
-0.415,0.0535,0.8521,0.4504,11.7252,-9.2519,0,0,0
-0.4187,0.0586,0.8618,-2.771,8.9542,-6.8702,0,0,0
-0.4097,0.0542,0.8564,-5.0611,5.9313,-4.4504,0,0,0
-0.406,0.0549,0.8857,-6.1145,3.4809,-2.8702,0,0,0
-0.4001,0.0603,0.8977,-6.3206,1.9618,-1.1374,0,0,0
-0.394,0.0625,0.9109,-7.687,1.9466,-0.626,0,0,0
-0.3845,0.0586,0.9282,-7.6336,3.2366,0.145,0,0,0
-0.3782,0.0593,0.9238,-5.8779,3.3282,0.3893,0,0,0
-0.387,0.0654,0.915,-4.3511,1.9084,-0.2519,0,0,0
-0.3909,0.0708,0.9026,-3.3359,-0.9924,-0.916,0,0,0
-0.3889,0.0708,0.9146,-3.7023,-4.3282,-1.7786,0,0,0
-0.3875,0.0681,0.9282,-4.0458,-5.9618,-1.9618,0,0,0
-0.3923,0.0557,0.9353,-4.6412,-5.4885,-1.6031,0,0,0
-0.3955,0.0674,0.9456,-4.6565,-4.9542,0.3282,0,0,0
-0.3894,0.0659,0.9421,-5.4733,-3.9237,1.626,0,0,0
-0.3901,0.074,0.9526,-5.7328,-3.374,1.8855,0,0,0
-0.3774,0.0786,0.9485,-5.9847,-2.9542,1.8321,0,0,0
-0.3721,0.0835,0.9578,-6.3664,-2.3893,0.6641,0,0,0
-0.3726,0.0793,0.9612,-6.7328,-1.2214,-1.145,0,0,0
-0.3784,0.074,0.9719,-5.8855,-0.4809,-1.8321,0,0,0
-0.3872,0.0713,0.9631,-5.0382,0.3053,-2.1374,0,0,0
-0.3938,0.0684,0.9546,-4.1221,-0.4656,-2.0992,0,0,0
-0.3916,0.0718,0.9539,-3.9771,-0.916,-1.6107,0,0,0
-0.3953,0.0715,0.9507,-3.229,-1.8779,-1.2214,0,0,0
-0.3918,0.0679,0.9526,-2.4275,-2.6183,-0.9695,0,0,0
-0.3926,0.0698,0.9558,-1.5573,-3.6718,-0.7252,0,0,0
-0.3889,0.0708,0.9683,-1.6031,-3.8015,-1.0916,0,0,0
-0.3879,0.0725,0.9666,-1.4504,-2.7481,-1.3588,0,0,0
-0.3826,0.0667,0.9512,-0.9618,-0.6641,-1.771,0,0,0
-0.3823,0.0671,0.9387,-1.8855,0.1145,-1.9389,0,0,0
-0.3872,0.0762,0.9202,-3.5954,-0.1756,-1.4733,0,0,0
-0.387,0.0742,0.9299,-5.7023,-0.687,-2.0611,0,0,0
-0.3931,0.0532,0.9397,-6.2443,-1.3206,-1.7481,0,0,0
-0.3965,0.0613,0.948,-6.0305,-1.5191,-1.1145,0,0,0
-0.3953,0.0552,0.9546,-5.3969,-1.0305,-0.3664,0,0,0
-0.3872,0.0554,0.9585,-4.3359,-0.8702,0.1221,0,0,0
-0.3943,0.0581,0.9504,-2.916,-1.4504,-0.0458,0,0,0
-0.386,0.0615,0.9395,-2.2748,-2.3664,-0.2977,0,0,0
-0.384,0.0647,0.9346,-2.3588,-4.2137,-0.6412,0,0,0
-0.3889,0.0581,0.9426,-3.2977,-4.9695,-0.6336,0,0,0
-0.3833,0.0554,0.9558,-3.6489,-4.313,-0.3206,0,0,0
-0.3872,0.0569,0.9636,-3.1985,-2.9237,0.2748,0,0,0
-0.3865,0.0625,0.9683,-2.542,-0.9466,0.0,0,0,0
-0.3816,0.0562,0.9509,-2.3969,-0.2672,0.3206,0,0,0
-0.3855,0.0632,0.938,-1.916,-1.2366,0.687,0,0,0
-0.3855,0.0613,0.9302,-1.8473,-3.771,0.5344,0,0,0
-0.3821,0.0688,0.9441,-2.8092,-6.0382,0.1221,0,0,0
-0.3784,0.0696,0.9521,-3.4504,-6.2595,-0.2748,0,0,0
-0.374,0.0647,0.9646,-3.2214,-3.9542,-0.2366,0,0,0
-0.3716,0.0625,0.9377,-3.229,-2.9771,-0.0534,0,0,0
-0.3745,0.0686,0.9175,-4.2901,-3.9924,0.9466,0,0,0
-0.376,0.0637,0.9282,-6.3664,-6.0763,0.5878,0,0,0
-0.3752,0.0632,0.9307,-5.7863,-7.4656,0.3664,0,0,0
-0.3672,0.0591,0.9387,-5.1527,-8.9771,-0.0229,0,0,0
-0.3662,0.0562,0.9324,-4.4809,-9.7557,-0.229,0,0,0
-0.3711,0.0623,0.9312,-3.4809,-11.3282,-1.0,0,0,0
-0.3665,0.063,0.9417,-4.3969,-11.9389,-1.3053,0,0,0
-0.3647,0.0574,0.9368,-4.5649,-11.9924,-1.4046,0,0,0
-0.3682,0.0571,0.9302,-3.9466,-13.0611,-1.6489,0,0,0
-0.3682,0.053,0.9058,-4.5267,-15.1985,-1.6794,0,0,0
-0.3677,0.0596,0.9041,-6.2519,-18.084,-2.7023,0,0,0
-0.366,0.0601,0.9089,-8.7481,-20.8168,-3.5878,0,0,0
-0.3657,0.052,0.9268,-10.2214,-21.916,-3.8015,0,0,0
-0.3665,0.0422,0.9524,-10.771,-20.5344,-2.9924,0,0,0
-0.3677,0.0369,0.9546,-9.5496,-18.4962,-1.4809,0,0,0
-0.3684,0.0347,0.9438,-8.8473,-17.8931,0.4656,0,0,0
-0.373,0.0388,0.9478,-10.1145,-18.4427,2.687,0,0,0
-0.3684,0.0383,0.947,-11.5725,-19.7863,3.6565,0,0,0
-0.3567,0.0305,0.9595,-10.9847,-20.6107,4.6565,0,0,0
-0.3416,0.0393,0.9717,-10.4656,-20.6489,4.7557,0,0,0
-0.3389,0.0393,0.9749,-8.855,-20.5267,4.687,0,0,0
-0.334,0.0425,0.98,-7.1832,-21.687,4.5038,0,0,0
-0.3333,0.042,0.9814,-6.313,-22.9847,4.374,0,0,0
-0.3235,0.0374,0.9683,-4.0992,-25.1756,4.0,0,0,0
-0.3291,0.0315,0.9673,-2.2443,-28.084,4.0382,0,0,0
-0.3291,0.0352,0.9902,-2.4504,-29.9466,4.4122,0,0,0
-0.3169,0.0352,1.0078,-3.084,-29.374,5.4656,0,0,0
-0.3044,0.03,1.0247,-1.7939,-27.5725,7.1145,0,0,0
-0.2964,0.0403,0.9946,1.2977,-27.1832,8.4962,0,0,0
-0.2917,0.0552,1.0034,2.7863,-28.9771,8.4046,0,0,0
-0.2803,0.0569,0.9922,1.8092,-30.8244,6.6947,0,0,0
-0.2664,0.0552,0.9961,1.8168,-31.3893,5.1221,0,0,0
-0.2566,0.0569,1.012,1.855,-29.9695,3.5038,0,0,0
-0.2532,0.0471,0.9912,2.7786,-27.8397,3.6183,0,0,0
-0.262,0.063,0.9687,2.1908,-29.3588,3.9313,0,0,0
-0.2566,0.0623,0.9944,-0.7252,-30.6336,3.7634,0,0,0
-0.2488,0.0596,1.0002,-4.8168,-28.5954,3.0763,0,0,0
-0.2351,0.0598,1.0146,-6.5725,-24.2061,3.6947,0,0,0
-0.228,0.0488,1.0208,-8.9389,-19.1908,6.458,0,0,0
-0.2148,0.0566,1.0342,-9.8626,-14.5573,7.0076,0,0,0
-0.2017,0.0645,1.0464,-8.9466,-10.2672,6.7405,0,0,0
-0.1924,0.0608,1.0452,-5.7939,-8.0305,5.0763,0,0,0
-0.189,0.0662,1.0166,-2.5954,-9.1145,2.4198,0,0,0
-0.2,0.0793,0.9783,0.0763,-14.8015,-1.0534,0,0,0
-0.2073,0.0752,0.9741,1.1832,-20.5114,-4.3359,0,0,0
-0.2051,0.0642,0.9849,1.0382,-24.4885,-6.4656,0,0,0
-0.2087,0.0518,1.0032,1.0153,-24.458,-7.0076,0,0,0
-0.2126,0.05,0.9915,-0.1603,-22.6794,-6.1832,0,0,0
-0.2209,0.0435,1.0093,-2.1374,-20.0,-4.8015,0,0,0
-0.2192,0.0374,0.9998,-4.0076,-17.1221,-2.1527,0,0,0
-0.2239,0.0315,1.0117,-5.2977,-14.4733,0.9695,0,0,0
-0.2117,0.0317,1.0166,-5.7328,-12.3969,3.8168,0,0,0
-0.2031,0.0374,1.0198,-5.4427,-11.6031,5.1145,0,0,0
-0.1917,0.0393,1.0173,-4.855,-10.9313,5.2824,0,0,0
-0.1848,0.0464,0.9995,-3.8779,-12.1603,4.8779,0,0,0
-0.1807,0.0488,0.9954,-5.2672,-14.1069,3.5725,0,0,0
-0.1729,0.052,1.0002,-6.4656,-15.2214,1.3664,0,0,0
-0.1753,0.0359,1.0049,-6.7481,-15.3282,-0.3969,0,0,0
-0.1807,0.042,1.0305,-6.4733,-14.8855,-0.542,0,0,0
-0.1863,0.033,1.0278,-5.313,-13.9008,-0.1145,0,0,0
-0.1882,0.0305,1.0266,-3.8473,-12.855,1.2061,0,0,0
-0.1836,0.03,1.042,-2.4198,-11.4733,3.7786,0,0,0
-0.1663,0.031,1.0295,-0.1145,-9.9695,5.1603,0,0,0
-0.1606,0.0435,1.0327,0.8015,-8.8092,5.2672,0,0,0
-0.1494,0.0498,1.041,0.8321,-7.374,4.1985,0,0,0
-0.1506,0.0474,1.0481,1.2672,-5.7252,3.0534,0,0,0
-0.1389,0.0464,1.042,2.9771,-3.9695,2.1145,0,0,0
-0.1335,0.0496,1.0254,4.6718,-3.0153,1.4198,0,0,0
-0.1309,0.0625,1.002,4.687,-3.3282,-0.1527,0,0,0
-0.1423,0.0588,0.9912,1.9695,-5.2595,-2.0076,0,0,0
-0.1567,0.0593,0.9968,0.0305,-7.7328,-3.5954,0,0,0
-0.1592,0.053,1.0115,-1.0916,-8.8092,-4.3511,0,0,0
-0.1594,0.0422,1.0129,-1.3282,-8.3817,-3.2443,0,0,0
-0.1611,0.0505,1.02,-2.1603,-7.3817,-1.9237,0,0,0
-0.1597,0.051,1.0168,-3.5344,-6.2824,-1.6489,0,0,0
-0.1536,0.0481,1.0088,-5.3206,-4.4962,-1.4275,0,0,0
-0.156,0.0408,1.0188,-6.6489,-3.0534,-1.7863,0,0,0
-0.1626,0.0464,1.0232,-7.2137,-2.5267,-1.6718,0,0,0
-0.165,0.0405,1.0254,-6.2137,-1.8244,-1.7099,0,0,0
-0.1626,0.0371,1.0027,-4.2443,-2.855,-1.6412,0,0,0
-0.1589,0.0483,1.0095,-4.2519,-5.2672,-2.2137,0,0,0
-0.1567,0.041,1.0217,-4.0916,-7.4733,-2.9008,0,0,0
-0.1597,0.0361,1.0325,-3.5573,-8.1679,-3.2214,0,0,0
-0.1545,0.0332,1.0281,-1.4885,-7.542,-3.1908,0,0,0
-0.1582,0.0334,1.0256,-0.9695,-6.7557,-3.1908,0,0,0
-0.1504,0.0393,1.0186,-1.8397,-5.3359,-3.0,0,0,0
-0.1523,0.032,1.0149,-2.8168,-4.2977,-1.6489,0,0,0
-0.1565,0.0378,0.9932,-2.0611,-4.4351,-1.0,0,0,0
-0.1575,0.0471,1.0081,-2.771,-5.0458,-0.6565,0,0,0
-0.1533,0.0374,1.0134,-4.4122,-4.8855,-0.6183,0,0,0
-0.1418,0.0295,1.0249,-4.7176,-3.1908,0.0458,0,0,0
-0.1455,0.0325,1.0227,-4.6641,-1.3511,0.3359,0,0,0
-0.1411,0.0295,1.0098,-5.0305,-0.4427,0.4962,0,0,0
-0.147,0.0364,1.0061,-5.3817,-1.9542,0.0153,0,0,0
-0.1492,0.0376,1.0132,-5.771,-3.1145,-0.145,0,0,0
-0.147,0.0315,1.0283,-4.8397,-4.374,0.4504,0,0,0
-0.1404,0.0276,1.0354,-2.6794,-3.9695,1.6794,0,0,0
-0.1411,0.0332,1.0405,-0.4122,-3.7863,2.1603,0,0,0
-0.1257,0.0439,1.0342,0.6641,-3.3588,1.1756,0,0,0
-0.1216,0.0452,1.0166,0.6336,-3.855,-0.3893,0,0,0
-0.1218,0.0503,1.0181,0.0687,-4.5115,-1.3969,0,0,0
-0.1292,0.0371,1.0125,-1.1069,-3.6718,-1.9618,0,0,0
-0.1274,0.0403,1.0227,-1.8015,-2.8473,-2.2366,0,0,0
-0.1372,0.0383,1.0322,-2.4046,-0.9389,-1.771,0,0,0
-0.1399,0.0427,1.0344,-2.1145,0.6336,-0.9695,0,0,0
-0.1418,0.0376,1.0186,-1.2748,1.0992,-0.4351,0,0,0
-0.1406,0.0396,1.0059,-0.3435,-0.1527,0.1679,0,0,0
-0.1367,0.0464,0.9934,-0.4198,-1.3893,-0.4656,0,0,0
-0.1396,0.0483,0.9924,-1.3817,-3.2901,-1.6489,0,0,0
-0.1357,0.0469,1.0029,-3.2137,-3.8244,-2.5573,0,0,0
-0.1392,0.0344,1.0085,-2.9237,-3.0611,-2.2366,0,0,0
-0.1431,0.0364,1.0139,-2.5267,-2.5725,-1.3206,0,0,0
-0.1436,0.0417,1.0215,-2.9771,-1.7634,-0.7023,0,0,0
-0.1345,0.0344,1.0188,-3.3282,-1.1985,-0.4656,0,0,0
-0.1418,0.0344,1.0139,-3.3053,-0.8397,-0.3435,0,0,0
-0.1426,0.0332,1.0215,-3.7328,-0.8779,-0.7405,0,0,0
-0.1372,0.0354,1.0181,-3.7099,-0.6565,-0.916,0,0,0
-0.1377,0.0352,1.0244,-3.1221,-1.0916,-1.0076,0,0,0
-0.1362,0.0291,1.0256,-3.1145,-1.8473,-1.0229,0,0,0
-0.1394,0.0325,1.0305,-2.5802,-2.1603,-1.0153,0,0,0
-0.1433,0.0276,1.0381,-1.2824,-2.0992,-0.8855,0,0,0
-0.1438,0.0293,1.0393,-0.7405,-1.9237,-1.0458,0,0,0
-0.1404,0.0334,1.0278,-0.458,-2.2443,-1.5496,0,0,0
-0.1428,0.0281,1.0269,-1.0534,-2.1603,-1.2061,0,0,0
-0.1362,0.031,1.0183,-1.0076,-1.4504,-1.2595,0,0,0
-0.1438,0.0327,1.0159,-0.9771,-1.2061,-0.9924,0,0,0
-0.1433,0.0366,1.0144,-1.5191,-0.5191,-0.5496,0,0,0
-0.1443,0.0322,0.9995,-1.5954,-0.7328,-0.0229,0,0,0
-0.1414,0.0396,1.0037,-2.3053,-1.8397,0.4656,0,0,0
-0.1384,0.0344,1.0129,-3.3053,-2.855,1.0382,0,0,0
-0.1345,0.0364,1.0168,-2.4656,-2.9389,1.4351,0,0,0
-0.1265,0.0432,1.0159,-1.7481,-3.0153,0.8321,0,0,0
-0.1252,0.0417,1.0237,-2.2137,-1.8092,0.6412,0,0,0
-0.1189,0.0425,1.0208,-2.7634,-0.5038,0.1221,0,0,0
-0.124,0.0481,1.0281,-2.542,0.7786,-0.3664,0,0,0
-0.1226,0.0466,1.0188,-2.4122,0.8473,-1.4046,0,0,0
-0.1252,0.0378,1.0222,-2.6641,-0.3053,-1.8397,0,0,0
-0.1306,0.0334,1.0212,-2.6565,-0.7099,-2.4198,0,0,0
-0.1387,0.0364,1.0161,-2.7863,-1.3969,-2.6947,0,0,0
-0.1428,0.03,1.0283,-3.2137,-1.6641,-2.1832,0,0,0
-0.1455,0.0264,1.0273,-2.8397,-1.4122,-1.5802,0,0,0
-0.1421,0.0327,1.0349,-1.9695,-1.9313,-0.8779,0,0,0
-0.1355,0.0352,1.0337,-2.0153,-1.5191,-0.9084,0,0,0
-0.1375,0.0359,1.0159,-2.1832,-1.2519,-1.1527,0,0,0
-0.1399,0.0327,1.022,-2.4962,-1.0916,-1.626,0,0,0
-0.1418,0.032,1.0249,-2.5496,-0.374,-1.2214,0,0,0
-0.1387,0.0298,1.0164,-1.5115,0.7176,-1.3435,0,0,0
-0.1399,0.0254,1.0212,-1.3664,0.4046,-0.8931,0,0,0
-0.1392,0.0264,1.0159,-2.1374,0.1908,-1.0458,0,0,0
-0.1416,0.0273,1.0142,-2.1908,-1.4885,-0.7099,0,0,0
-0.1343,0.0334,1.0269,-2.0458,-1.5802,0.0382,0,0,0
-0.1284,0.0315,1.0259,-1.1908,-1.2748,0.4122,0,0,0
-0.1255,0.0388,1.0232,-1.2061,-0.4962,-0.2214,0,0,0
-0.1235,0.0371,1.0105,-1.6794,-0.6565,-0.5573,0,0,0
-0.124,0.0378,1.0176,-2.2443,-0.4809,-1.2595,0,0,0
-0.1277,0.0269,1.0193,-2.4198,-0.1832,-0.8168,0,0,0
-0.126,0.0361,1.011,-1.8092,0.7634,-0.5802,0,0,0
-0.1355,0.0298,1.0156,-2.0229,0.2214,-0.4733,0,0,0
-0.1326,0.031,1.0134,-1.7481,-0.3053,-0.084,0,0,0
-0.1311,0.0332,1.0142,-1.374,-1.3511,-0.4351,0,0,0
-0.1284,0.0364,1.0173,-1.0458,-1.0458,-0.4809,0,0,0
-0.1267,0.0325,1.0217,-1.3817,-0.8168,-0.5038,0,0,0
-0.1299,0.0266,1.0176,-1.4046,-0.1832,-0.3359,0,0,0
-0.1296,0.0359,1.0127,-1.2214,0.0305,-0.4122,0,0,0
-0.1311,0.0354,1.0083,-1.9084,0.1221,-1.0534,0,0,0
-0.1296,0.03,1.011,-2.0992,-0.0992,-0.8092,0,0,0
-0.1331,0.0291,1.0195,-2.0076,-0.0153,-0.542,0,0,0
-0.1313,0.0271,1.0195,-1.5038,-0.7786,-0.4122,0,0,0
-0.1304,0.031,1.0112,-0.7786,-1.9313,-0.6489,0,0,0
-0.1257,0.0317,1.0137,-0.9466,-2.4504,-1.145,0,0,0
-0.1216,0.0332,1.0117,-0.6107,-1.2595,-0.9237,0,0,0
-0.1272,0.0393,0.9978,-1.5344,-2.1603,-0.7939,0,0,0
-0.1274,0.0417,1.0178,-3.4656,-2.374,-1.0076,0,0,0
-0.1335,0.0247,1.03,-3.1069,-1.6031,-1.3282,0,0,0
-0.1343,0.0347,1.0193,-2.0153,-0.5649,-1.0458,0,0,0
-0.1316,0.03,1.0203,-2.1908,0.626,-0.4427,0,0,0
-0.134,0.0271,1.0203,-1.7863,1.2366,0.2061,0,0,0
-0.1328,0.0281,0.9973,-0.542,0.3817,0.1069,0,0,0
-0.1365,0.0334,1.0015,-1.3664,-2.3664,0.0763,0,0,0
-0.1394,0.0273,1.0176,-2.9618,-4.0916,-0.3206,0,0,0
-0.1353,0.0161,1.0312,-2.4962,-2.9389,-0.0992,0,0,0
-0.1323,0.0132,1.0396,-0.7176,-1.2366,1.2214,0,0,0
-0.1248,0.022,1.0181,-0.2443,0.1908,1.6641,0,0,0
-0.1265,0.0247,0.9951,-1.0458,-0.5115,1.2214,0,0,0
-0.1289,0.0337,0.9897,-2.5038,-2.6947,0.5115,0,0,0
-0.1311,0.0249,1.0115,-3.8779,-3.6031,0.2214,0,0,0
-0.1296,0.0176,1.0164,-4.0916,-3.374,0.8244,0,0,0
-0.1348,0.0222,1.0076,-3.5954,-3.1069,1.1756,0,0,0
-0.1284,0.0161,1.0117,-5.0076,-2.7328,1.3588,0,0,0
-0.1284,0.0181,1.0095,-7.7099,-3.1221,1.5725,0,0,0
-0.1309,0.0176,1.0242,-9.3511,-2.8779,0.8702,0,0,0
-0.1272,0.0178,1.0439,-9.0305,-1.9466,0.9771,0,0,0
-0.1338,0.0151,1.0488,-6.9389,-1.0763,0.8092,0,0,0
-0.1384,0.0229,1.031,-5.6031,-1.2901,1.1221,0,0,0
-0.1416,0.0278,1.0332,-5.2748,-2.313,1.3282,0,0,0
-0.1335,0.0256,1.0444,-5.1221,-3.2137,2.084,0,0,0
-0.1294,0.0291,1.0566,-3.9695,-2.6183,2.8168,0,0,0
-0.1282,0.0344,1.0515,-2.2214,-1.3893,3.626,0,0,0
-0.1235,0.0393,1.0435,-1.9542,-1.0534,3.374,0,0,0
-0.1179,0.0481,1.0315,-1.9466,-1.5496,2.5878,0,0,0
-0.1174,0.0486,1.0391,-2.2366,-1.3053,2.0687,0,0,0
-0.1145,0.0493,1.0481,-1.4351,-0.3206,1.687,0,0,0
-0.1138,0.0452,1.0396,-0.458,0.8168,0.7405,0,0,0
-0.1155,0.0374,1.0244,-0.2366,2.458,0.7252,0,0,0
-0.1265,0.0369,1.0051,0.0763,2.3817,0.6336,0,0,0
-0.1309,0.0366,0.9993,-0.2061,1.5954,1.0534,0,0,0
-0.1316,0.0315,0.9995,-0.6336,0.5267,1.5115,0,0,0
-0.1245,0.0288,0.9976,-1.3664,-0.7634,2.2595,0,0,0
-0.1252,0.0273,1.0117,-1.4351,-1.1069,2.1527,0,0,0
-0.1167,0.0325,1.0105,-1.7405,-1.2443,2.3206,0,0,0
-0.1133,0.0317,1.0083,-2.9313,-1.3435,1.3435,0,0,0
-0.1118,0.0361,1.0273,-4.5191,-0.3893,0.2977,0,0,0
-0.1094,0.0269,1.031,-5.3282,1.6183,-0.1527,0,0,0
-0.1128,0.0212,1.0439,-5.1298,3.5267,-0.4046,0,0,0
-0.1218,0.0232,1.0347,-4.0763,5.1756,-0.626,0,0,0
-0.1301,0.02,1.0103,-3.7328,4.4962,-1.1908,0,0,0
-0.1362,0.0261,1.0076,-3.7786,2.2901,-1.2977,0,0,0
-0.1387,0.0232,1.0022,-3.6565,-0.6718,-2.1527,0,0,0
-0.1399,0.0254,1.0044,-3.4656,-2.6183,-2.9466,0,0,0
-0.1428,0.0208,1.0203,-2.8702,-2.6641,-2.9389,0,0,0
-0.1416,0.0254,1.0107,-2.3893,-2.1832,-2.8244,0,0,0
-0.1399,0.0264,1.012,-2.7557,-1.4885,-1.8779,0,0,0
-0.1421,0.0249,1.0071,-3.2824,-1.1298,-1.2137,0,0,0
-0.1411,0.0244,1.0122,-4.1069,-1.1374,-1.0229,0,0,0
-0.1409,0.0242,1.0156,-4.7023,-0.5573,-0.5267,0,0,0
-0.1389,0.0193,1.0269,-4.6031,-0.3206,0.145,0,0,0
-0.1299,0.02,1.0251,-4.0992,-0.2443,1.6107,0,0,0
-0.1289,0.0251,1.0278,-2.7328,-1.5954,2.4885,0,0,0
-0.1162,0.0276,1.0327,-2.1145,-2.6489,2.0,0,0,0
-0.1089,0.0286,1.0266,-1.4198,-3.687,1.2214,0,0,0
-0.1008,0.0317,1.0261,-1.2977,-3.8855,0.0611,0,0,0
-0.1011,0.031,1.0312,-1.7634,-3.3893,-1.0229,0,0,0
-0.105,0.0234,1.0315,-3.2748,-1.9466,-1.6107,0,0,0
-0.1118,0.0154,1.0369,-3.2137,-0.1221,-1.8397,0,0,0
-0.1199,0.0149,1.0403,-2.9237,1.8779,-1.2901,0,0,0
-0.1213,0.0142,1.0222,-2.1756,3.1985,-1.1603,0,0,0
-0.126,0.0181,1.0125,-2.6718,2.0305,-1.0611,0,0,0
-0.1313,0.0183,1.0044,-3.3893,-0.3817,-2.0916,0,0,0
-0.1345,0.011,1.0166,-3.2672,-2.1832,-2.2443,0,0,0
-0.1309,0.0105,1.0269,-1.7176,-2.6489,-2.2519,0,0,0
-0.1318,0.0088,1.0029,-1.2137,-2.458,-2.3511,0,0,0
-0.1404,0.0161,1.0005,-3.0763,-2.7328,-2.6794,0,0,0
-0.1406,0.0129,1.0234,-5.0305,-2.2824,-2.7252,0,0,0
-0.147,0.001,1.0359,-5.2443,-0.1145,-1.3817,0,0,0
-0.1472,0.0012,1.0273,-3.5725,1.2443,0.7557,0,0,0
-0.1445,0.0161,1.0081,-2.8931,0.7328,1.771,0,0,0
-0.137,0.0195,1.0129,-3.6641,-1.6107,1.7557,0,0,0
-0.1284,0.0176,1.0132,-4.0,-3.3664,0.7634,0,0,0
-0.1226,0.0125,1.0293,-3.374,-3.7328,0.5649,0,0,0
-0.1199,0.0227,1.0415,-3.2672,-2.7328,0.2977,0,0,0
-0.1184,0.0134,1.0486,-3.0611,-1.3435,0.2901,0,0,0
-0.1157,0.0115,1.0503,-1.9847,0.4809,0.6336,0,0,0
-0.1135,0.0188,1.0405,-1.2672,1.9389,0.7634,0,0,0
-0.1155,0.0212,1.0359,-0.8397,3.2366,0.0916,0,0,0
-0.1189,0.022,1.0369,-1.8855,3.6107,-0.6412,0,0,0
-0.1289,0.0122,1.0581,-2.4656,5.9542,-0.3817,0,0,0
-0.1367,0.0017,1.0806,-1.3435,9.4198,0.5115,0,0,0
-0.1365,0.0005,1.1025,1.5267,13.6489,2.0458,0,0,0
-0.1416,-0.0037,1.1084,6.2748,18.5267,3.2672,0,0,0
-0.1426,-0.0044,1.1042,10.0382,23.4351,4.3511,0,0,0
-0.1509,-0.0093,1.106,12.5878,28.6718,5.7176,0,0,0
-0.156,0.0017,1.0962,12.5725,34.4198,7.0458,0,0,0
-0.1611,0.0046,1.093,11.5267,40.9847,8.9542,0,0,0
-0.1489,0.012,1.0889,9.2595,48.3893,11.0153,0,0,0
-0.1538,0.0251,1.0764,3.9847,57.0534,12.1679,0,0,0
-0.1531,0.0144,1.0764,-0.916,65.3664,13.771,0,0,0
-0.1675,0.0403,1.0867,-7.3817,75.0305,13.9847,0,0,0
-0.1743,0.0469,1.0715,-10.5267,82.8855,14.0458,0,0,0
-0.1721,0.0623,1.0601,-13.0153,89.916,14.6183,0,0,0
-0.176,0.0535,1.0601,-14.7099,96.0763,13.7863,0,0,0
-0.178,0.0635,1.0303,-14.2901,100.3283,11.3282,0,0,0
-0.1968,0.0652,1.0017,-11.8244,98.5954,8.3359,0,0,0
-0.2444,0.0906,0.8867,-6.0992,86.5954,8.8931,0,0,0
-0.2861,0.0483,0.9031,-5.9389,65.1145,-1.7634,0,0,0
-0.324,0.0002,0.9487,7.8779,48.7634,-3.7481,0,0,0
-0.3296,0.0437,0.979,13.8702,37.1832,-8.5038,0,0,0
-0.3315,0.0244,0.9875,23.4122,33.8397,-6.8397,0,0,0
-0.3308,0.0432,0.9978,27.6183,33.3893,-6.3893,0,0,0
-0.3391,0.0339,0.9795,29.4351,36.313,-5.6794,0,0,0
-0.3699,0.0364,0.9309,28.0763,37.7099,-5.084,0,0,0
-0.395,0.0435,0.9089,23.8244,38.0076,-4.1603,0,0,0
-0.4065,0.043,0.8809,19.4885,37.229,-1.1069,0,0,0
-0.4006,0.0574,0.8784,14.6489,35.5038,1.1603,0,0,0
-0.3914,0.0569,0.8616,11.7405,33.8626,2.3511,0,0,0
-0.3945,0.0647,0.8594,8.9847,30.5649,2.2061,0,0,0
-0.3948,0.0745,0.8511,6.0458,25.5114,0.8244,0,0,0
-0.3855,0.0784,0.8652,3.7863,21.0763,-0.8244,0,0,0
-0.395,0.0725,0.8689,3.4427,17.3282,-2.7557,0,0,0
-0.394,0.0798,0.8523,3.2748,13.2519,-4.2443,0,0,0
-0.3948,0.0779,0.8538,1.8168,8.8473,-5.7557,0,0,0
-0.4033,0.0669,0.8704,0.5496,5.2748,-7.0611,0,0,0
-0.4136,0.0615,0.8594,0.7557,2.1985,-7.0382,0,0,0
-0.416,0.0664,0.8594,-0.374,-1.3511,-6.4198,0,0,0
-0.4116,0.052,0.8647,-1.3435,-3.7023,-4.6794,0,0,0
-0.4043,0.0588,0.8508,-2.2519,-5.9695,-3.9466,0,0,0
-0.3989,0.0652,0.8481,-3.1985,-9.2061,-3.5649,0,0,0
-0.3896,0.0647,0.8525,-4.0153,-13.8092,-4.3817,0,0,0
-0.3848,0.0681,0.8784,-5.374,-17.2519,-6.2901,0,0,0
-0.3816,0.0508,0.8955,-6.7939,-18.7099,-8.3359,0,0,0
-0.3857,0.0535,0.9155,-6.7099,-18.4809,-9.1985,0,0,0
-0.3955,0.0464,0.9177,-8.626,-18.0,-8.8397,0,0,0
-0.4043,0.0405,0.9268,-10.2748,-16.313,-6.6031,0,0,0
-0.4138,0.0239,0.938,-9.8015,-14.6565,-3.4504,0,0,0
-0.4075,0.0337,0.9395,-9.0076,-13.6489,-0.5344,0,0,0
-0.3989,0.0364,0.9324,-8.0229,-13.6718,1.3206,0,0,0
-0.3862,0.0337,0.9331,-7.1069,-15.3664,2.8702,0,0,0
-0.3813,0.0449,0.9355,-6.5802,-18.7252,3.6412,0,0,0
-0.3655,0.0391,0.9353,-3.7863,-22.229,2.4656,0,0,0
-0.3521,0.0503,0.9456,-1.0992,-26.2137,0.9466,0,0,0
-0.3472,0.0564,0.9485,0.8321,-30.4046,-0.5496,0,0,0
-0.3469,0.0466,0.9363,4.3969,-34.626,-1.8321,0,0,0
-0.3547,0.0654,0.9456,6.8015,-40.2366,-1.8931,0,0,0
-0.3464,0.0452,0.9312,9.8168,-44.8168,-2.5649,0,0,0
-0.3586,0.0557,0.9368,8.4733,-48.0458,-2.0229,0,0,0
-0.3621,0.0698,0.9292,1.9389,-50.8702,-0.8855,0,0,0
-0.3462,0.0403,0.9036,-1.4275,-52.7786,1.3664,0,0,0
-0.3318,0.0356,0.8735,-1.145,-57.8626,5.2672,0,0,0
-0.3213,0.0603,0.8811,-2.687,-64.0305,7.6031,0,0,0
-0.2966,0.0659,0.915,-8.4122,-69.5191,7.855,0,0,0
-0.2715,0.0579,0.9614,-12.5496,-69.1145,6.7863,0,0,0
-0.2383,0.0552,1.0122,-12.8244,-65.7099,5.1908,0,0,0
-0.2251,0.0525,0.9968,-9.8931,-61.5115,3.8015,0,0,0
-0.2358,0.0774,1.0142,-7.4122,-58.8168,2.7786,0,0,0
-0.2151,0.0608,1.0549,-9.8626,-53.9618,0.0611,0,0,0
-0.2202,0.0442,1.0776,-11.458,-47.8702,-0.3817,0,0,0
-0.1995,0.0349,1.0225,-10.2214,-43.5954,0.6641,0,0,0
-0.1809,0.0134,0.9656,-6.0687,-42.458,1.229,0,0,0
-0.1919,0.0613,0.9111,-7.5649,-51.0229,-0.9466,0,0,0
-0.198,0.0593,0.97,-15.1221,-59.5649,-4.2977,0,0,0
-0.198,0.022,1.0051,-18.542,-67.1069,-5.9389,0,0,0
-0.1597,0.0227,1.1201,-13.4733,-61.374,-5.9542,0,0,0
-0.1689,0.0132,1.1145,-5.7099,-55.5649,0.0382,0,0,0
-0.1472,0.0391,1.1443,-3.2824,-50.3664,3.2824,0,0,0
-0.1235,0.0327,1.1494,-0.1374,-41.7481,5.1527,0,0,0
-0.0923,0.05,1.1172,-0.3969,-32.687,4.8931,0,0,0
-0.0789,0.0496,1.1589,-0.2443,-20.8626,4.6718,0,0,0
-0.0737,0.0488,1.1753,1.1832,-6.9466,5.8397,0,0,0
-0.0732,0.0447,1.1873,4.7634,5.771,7.0153,0,0,0
-0.0713,0.0544,1.1409,8.7328,14.0305,6.7786,0,0,0
-0.0798,0.0579,1.0874,10.4504,17.1832,5.313,0,0,0
-0.0869,0.0618,1.021,10.3053,14.8015,2.6412,0,0,0
-0.0901,0.0654,0.999,7.8626,8.9771,-1.0992,0,0,0
-0.1057,0.074,0.9954,5.1603,3.1603,-4.9847,0,0,0
-0.1182,0.0632,1.042,4.1756,0.7481,-7.3969,0,0,0
-0.1316,0.0459,1.0774,4.4733,3.8321,-6.8473,0,0,0
-0.1416,0.0427,1.0955,6.0992,10.4275,-4.2824,0,0,0
-0.1465,0.042,1.0994,7.7328,17.7176,-1.3435,0,0,0
-0.1516,0.0398,1.0833,9.542,23.0229,1.1374,0,0,0
-0.1545,0.041,1.0811,11.1069,25.8397,2.2748,0,0,0
-0.1526,0.0386,1.0576,13.3664,27.9542,2.7176,0,0,0
-0.1575,0.04,1.0181,15.6336,27.4046,3.4122,0,0,0
-0.1694,0.0439,0.9954,14.3282,24.5267,4.1221,0,0,0
-0.1721,0.0457,0.9612,9.2977,20.7557,4.6336,0,0,0
-0.1777,0.0342,0.937,3.313,16.5649,6.1298,0,0,0
-0.1921,0.0371,0.9382,-3.5191,13.374,8.7023,0,0,0
-0.2026,0.0315,0.95,-11.8321,12.8473,13.0534,0,0,0
-0.2156,0.0112,0.9897,-21.542,15.2901,19.7939,0,0,0
-0.2405,0.0066,1.0242,-31.2366,22.9008,28.5496,0,0,0
-0.2339,0.002,1.0039,-36.8092,30.7328,38.1145,0,0,0
-0.1995,0.0171,0.9768,-41.5802,34.6565,46.9313,0,0,0
-0.1973,0.0193,0.9805,-49.3969,36.458,52.1298,0,0,0
-0.2092,0.0354,0.969,-54.7176,36.8702,53.3817,0,0,0
-0.2422,-0.019,0.9778,-61.1069,36.5954,54.5191,0,0,0
-0.2825,0.0027,0.946,-67.7405,32.4656,58.2901,0,0,0
-0.2566,-0.0383,0.9053,-65.9618,26.5191,64.9313,0,0,0
-0.2627,-0.0093,0.9524,-56.7023,14.8626,72.374,0,0,0
-0.2344,0.009,1.0027,-64.6565,10.0916,71.7557,0,0,0
-0.2537,-0.0349,1.0522,-63.0916,9.5725,71.0687,0,0,0
-0.2429,-0.0305,0.9973,-56.3359,9.3359,68.542,0,0,0
-0.2285,-0.0398,0.9751,-52.2977,7.0,67.8626,0,0,0
-0.2146,-0.0398,0.9275,-54.1069,1.8702,68.3435,0,0,0
-0.2261,-0.0278,0.9397,-53.8244,-5.7023,69.1832,0,0,0
-0.2244,-0.0427,1.0242,-51.9008,-9.2137,69.3359,0,0,0
-0.2183,-0.0498,1.0295,-48.3206,-7.6336,67.2748,0,0,0
-0.2124,-0.0557,0.998,-39.2748,-7.4275,65.2366,0,0,0
-0.197,-0.0388,1.0081,-36.9695,-7.8473,63.8015,0,0,0
-0.1924,-0.0298,1.0276,-36.1298,-8.374,62.4351,0,0,0
-0.1848,-0.022,1.0476,-32.6565,-7.3817,58.7481,0,0,0
-0.1648,-0.0249,1.0593,-26.7328,-5.9924,52.8321,0,0,0
-0.1519,-0.0168,1.0593,-20.5954,-3.1832,44.5878,0,0,0
-0.1592,-0.0293,1.0244,-15.6565,-1.7328,35.8855,0,0,0
-0.1716,-0.0388,0.9563,-13.3435,-5.1221,27.9695,0,0,0
-0.2339,-0.071,0.9253,-17.1985,-11.4275,23.6336,0,0,0
-0.2832,-0.0837,0.9072,-21.0992,-20.6412,24.084,0,0,0
-0.2844,-0.0991,0.9319,-24.6336,-26.5954,29.0153,0,0,0
-0.2771,-0.1138,0.9802,-23.8473,-27.6031,36.7252,0,0,0
-0.2566,-0.1064,0.9824,-21.7557,-25.4733,42.9924,0,0,0
-0.2458,-0.1057,1.0027,-22.4198,-22.9542,47.313,0,0,0
-0.241,-0.0864,1.0254,-23.2214,-19.8931,49.9924,0,0,0
-0.189,-0.0779,1.0222,-20.458,-16.4809,50.0076,0,0,0
-0.1462,-0.0586,1.0566,-18.0153,-10.8168,46.0611,0,0,0
-0.1248,-0.0459,1.063,-14.1603,-4.0611,38.0076,0,0,0
-0.1206,-0.0391,1.0583,-9.5191,-0.5649,28.9924,0,0,0
-0.1321,-0.0356,1.0491,-4.916,0.2595,21.3664,0,0,0
-0.1309,-0.033,1.0271,1.3969,-1.9237,13.916,0,0,0
-0.1345,-0.0447,1.0144,8.3664,-5.3893,6.8168,0,0,0
-0.1101,-0.0437,1.0161,11.1374,-8.5802,2.0687,0,0,0
-0.115,-0.0237,1.0161,13.4656,-10.6336,-4.7634,0,0,0
-0.1021,-0.0222,1.0193,14.5954,-11.8321,-11.6031,0,0,0
-0.1155,-0.0286,1.0471,15.4427,-10.3435,-17.1527,0,0,0
-0.1011,-0.021,1.0752,16.1832,-6.4198,-22.626,0,0,0
-0.1008,-0.021,1.1067,18.7634,-0.4275,-27.542,0,0,0
-0.0703,0.0046,1.1433,26.2366,6.145,-34.145,0,0,0
-0.0317,0.0298,1.209,37.6641,13.0076,-43.5954,0,0,0
0.0049,0.0388,1.2356,54.1679,20.2901,-57.4046,0,0,0
0.0208,0.041,1.2109,72.4428,25.0763,-73.0305,0,0,0
0.0186,0.0422,1.1589,87.5115,25.4198,-89.4351,0,0,0
-0.0129,0.0227,1.0979,96.4809,21.5649,-105.5115,0,0,0
-0.0488,0.0129,1.0579,100.4886,14.3206,-119.2977,0,0,0
-0.0815,0.0134,1.021,102.4275,8.1374,-129.8779,0,0,0
-0.104,0.0256,1.0049,100.7786,2.9084,-137.2366,0,0,0
-0.1384,0.0229,1.01,98.0458,1.7863,-140.8321,0,0,0
-0.1294,0.0132,1.0098,94.6489,3.7405,-140.2748,0,0,0
-0.1899,0.002,1.0208,88.9924,9.5038,-136.1985,0,0,0
-0.2441,-0.0186,1.0283,83.2901,17.2595,-130.0992,0,0,0
-0.3123,-0.0159,1.001,76.5496,25.3053,-121.1221,0,0,0
-0.3479,-0.0032,0.9492,69.5802,29.7099,-109.9924,0,0,0
-0.3586,-0.0085,0.9045,62.8855,29.3511,-96.7023,0,0,0
-0.344,0.0107,0.9424,54.9237,25.5038,-82.397,0,0,0
-0.3362,0.0522,0.8975,49.4122,21.8855,-73.3893,0,0,0
-0.3201,0.0693,0.9116,44.8397,17.6031,-68.9695,0,0,0
-0.2939,0.0857,0.9102,39.8855,14.771,-67.4351,0,0,0
-0.2505,0.0718,0.8735,36.5344,7.4733,-67.5191,0,0,0
-0.2393,0.1152,0.9939,32.1832,11.6107,-69.5344,0,0,0
-0.2615,0.1006,0.9558,34.2901,12.374,-70.1832,0,0,0
-0.2693,0.114,1.0056,33.1145,10.5344,-72.4809,0,0,0
-0.2952,0.0742,1.0291,31.7863,12.1908,-71.7023,0,0,0
-0.3257,0.0767,1.0686,34.4275,16.7176,-68.2672,0,0,0
-0.3406,0.0808,1.0801,37.8626,22.5267,-63.8626,0,0,0
-0.3369,0.0762,1.0657,42.8626,28.8321,-57.7176,0,0,0
-0.3457,0.071,0.9973,46.4809,31.4198,-51.542,0,0,0
-0.3496,0.0955,0.9275,47.6641,28.6489,-46.2366,0,0,0
-0.3452,0.1145,0.8828,44.3893,21.0229,-44.0229,0,0,0
-0.3457,0.123,0.8542,38.9313,12.229,-44.3664,0,0,0
-0.3481,0.1348,0.8525,32.5191,4.6794,-45.5496,0,0,0
-0.3591,0.1343,0.8643,24.6336,0.3053,-44.8855,0,0,0
-0.3713,0.1333,0.8772,16.9466,-0.3359,-41.8931,0,0,0
-0.3943,0.1174,0.8909,8.5344,1.4885,-35.5573,0,0,0
-0.4163,0.0986,0.9094,0.1908,5.2977,-26.5038,0,0,0
-0.4282,0.0876,0.9011,-5.2977,10.2748,-16.6107,0,0,0
-0.4395,0.084,0.8879,-8.687,13.4962,-5.7252,0,0,0
-0.4368,0.0688,0.8689,-10.3435,13.3206,4.6107,0,0,0
-0.4292,0.0938,0.8652,-15.0763,9.2748,12.6031,0,0,0
-0.4038,0.1016,0.8611,-17.0076,2.8931,16.6031,0,0,0
-0.3862,0.1074,0.8696,-18.3359,-3.3817,17.3893,0,0,0
-0.3679,0.1089,0.8816,-20.6718,-8.9389,17.1985,0,0,0
-0.3643,0.1094,0.907,-23.8779,-12.458,17.9084,0,0,0
-0.354,0.1038,0.9224,-24.855,-13.3511,20.2901,0,0,0
-0.3523,0.0977,0.9524,-25.374,-11.9924,24.1527,0,0,0
-0.3455,0.0991,0.9485,-24.458,-10.5725,28.1985,0,0,0
-0.3438,0.1062,0.9441,-24.9008,-10.4427,30.9924,0,0,0
-0.3481,0.1165,0.9424,-27.9542,-11.4504,33.0611,0,0,0
-0.3413,0.1077,0.9331,-30.6947,-13.1832,34.6641,0,0,0
-0.3269,0.0972,0.937,-34.1603,-15.2748,38.1374,0,0,0
-0.3291,0.0996,0.9678,-37.6718,-15.2672,41.6031,0,0,0
-0.3228,0.1016,0.9817,-39.2672,-13.0458,44.7023,0,0,0
-0.2957,0.1094,0.9773,-39.5191,-12.2977,47.4504,0,0,0
-0.2761,0.1077,0.9673,-40.313,-12.5802,48.0382,0,0,0
-0.2737,0.1025,0.9634,-43.1145,-13.9008,46.9542,0,0,0
-0.2937,0.0952,0.9646,-48.3053,-14.8855,45.6489,0,0,0
-0.3027,0.0793,0.9658,-51.229,-15.2137,46.855,0,0,0
-0.3125,0.0654,0.9587,-54.2137,-15.1298,51.2214,0,0,0
-0.3066,0.0569,0.9758,-55.9389,-15.2824,57.0229,0,0,0
-0.2939,0.0442,1.002,-56.2901,-12.0687,62.5496,0,0,0
-0.2534,0.0425,1.0139,-52.374,-7.9542,65.1603,0,0,0
-0.2288,0.0674,0.9897,-47.3817,-6.458,63.9542,0,0,0
-0.2058,0.0959,0.9866,-44.687,-8.313,59.0076,0,0,0
-0.1934,0.1121,1.012,-45.2672,-9.5725,50.145,0,0,0
-0.1958,0.1099,1.0417,-42.4809,-10.145,40.3664,0,0,0
-0.1975,0.0806,1.0488,-36.1908,-8.8397,32.6107,0,0,0
-0.2075,0.0876,1.0327,-28.4198,-7.8092,28.0687,0,0,0
-0.2122,0.0894,1.0259,-23.626,-7.916,24.4198,0,0,0
-0.2134,0.0938,1.0266,-19.8321,-8.5725,20.374,0,0,0
-0.2168,0.0864,1.0063,-15.2672,-9.5344,15.9466,0,0,0
-0.22,0.0876,1.0063,-10.7176,-11.4733,11.6412,0,0,0
-0.2156,0.0798,1.02,-8.6031,-12.8321,8.4733,0,0,0
-0.2202,0.0825,1.0486,-7.542,-11.7252,5.6107,0,0,0
-0.23,0.0686,1.0454,-5.3435,-9.313,3.2214,0,0,0
-0.228,0.0654,1.0161,-3.5954,-7.0763,2.0229,0,0,0
-0.2427,0.0645,0.999,-4.8397,-6.5649,0.6947,0,0,0
-0.2402,0.0681,1.0134,-7.687,-5.374,-0.6489,0,0,0
-0.25,0.0564,1.0237,-8.3893,-3.7863,-1.2901,0,0,0
-0.2603,0.0444,1.041,-7.1756,-0.9771,-0.6947,0,0,0
-0.272,0.0332,1.0276,-4.6412,0.1527,0.6794,0,0,0
-0.2764,0.0408,1.0088,-2.7176,-0.374,1.855,0,0,0
-0.2759,0.0393,0.9998,-1.8931,-3.2977,2.1298,0,0,0
-0.2644,0.0354,1.0012,-2.4733,-5.8855,2.5725,0,0,0
-0.2593,0.022,1.002,-2.2443,-6.5496,2.6794,0,0,0
-0.2495,0.0381,1.0037,-1.8321,-6.6183,2.3359,0,0,0
-0.2422,0.0403,1.0032,-2.4809,-5.4504,2.0076,0,0,0
-0.2432,0.0398,0.9988,-2.6794,-4.8473,2.2366,0,0,0
-0.2339,0.0479,1.0125,-1.9313,-3.5649,1.7252,0,0,0
-0.2375,0.0498,1.0178,-2.0229,-1.626,0.8931,0,0,0
-0.2297,0.0371,1.0125,-1.5725,0.6336,0.6794,0,0,0
-0.2366,0.0313,0.9885,-1.0763,0.6947,0.5344,0,0,0
-0.241,0.0381,0.9995,-0.8473,-0.3817,1.3282,0,0,0
-0.2349,0.0283,0.9878,-1.1756,-2.229,0.3588,0,0,0
-0.2349,0.0344,0.9753,-0.8092,-4.9695,-0.5496,0,0,0
-0.2373,0.0376,0.9885,-2.0763,-6.9618,-1.6794,0,0,0
-0.231,0.0303,1.0071,-2.6641,-6.3435,-1.5267,0,0,0
-0.2368,0.0276,1.022,-1.3359,-4.4122,-1.0076,0,0,0
-0.2285,0.0325,1.0266,-1.229,-0.6031,-0.2977,0,0,0
-0.2314,0.0266,1.0115,-0.6565,2.1908,0.4885,0,0,0
-0.2275,0.0349,0.9993,0.1298,2.7481,0.9008,0,0,0
-0.2322,0.032,0.98,0.542,1.6641,0.1603,0,0,0
-0.2361,0.0337,0.9592,0.6412,-2.229,0.0229,0,0,0
-0.2356,0.0381,0.979,-0.5725,-5.1145,-1.0076,0,0,0
-0.2302,0.0347,0.991,-0.8931,-5.3282,-1.7863,0,0,0
-0.2397,0.0322,0.9922,-0.229,-4.6489,-1.2443,0,0,0
-0.2415,0.0344,0.9968,-0.3817,-3.8931,-0.2366,0,0,0
-0.2393,0.0234,0.9971,-0.8015,-2.229,1.1832,0,0,0
-0.2363,0.0374,0.9929,-0.3817,-1.2901,1.2061,0,0,0
-0.2268,0.0408,0.9944,-0.4885,-0.5802,1.229,0,0,0
-0.2283,0.0339,0.9973,-2.2901,-0.1832,1.6336,0,0,0
-0.2334,0.0376,0.9934,-3.1679,-1.3206,2.6718,0,0,0
-0.2329,0.0391,0.9978,-1.6947,-2.4733,3.3282,0,0,0
-0.2346,0.0378,1.0093,-0.5649,-2.9237,2.7786,0,0,0
-0.2253,0.0317,0.9946,0.3817,-2.8702,2.3282,0,0,0
-0.2412,0.0332,0.9934,-1.771,-3.1527,2.3053,0,0,0
-0.2551,0.0186,0.988,-5.4198,-3.5573,3.458,0,0,0
-0.2703,0.0095,1.0012,-9.0,-2.9771,6.6412,0,0,0
-0.2859,-0.0117,1.012,-12.145,-0.626,11.8092,0,0,0
-0.3003,-0.0308,1.0251,-14.3588,2.9237,18.2366,0,0,0
-0.3408,-0.0417,1.0088,-20.2061,6.4198,26.2061,0,0,0
-0.3704,-0.0771,1.009,-28.229,10.0229,36.9313,0,0,0
-0.3748,-0.0667,1.0027,-34.8702,13.4198,49.7405,0,0,0
-0.3394,-0.0645,0.9998,-42.626,18.4885,60.6183,0,0,0
-0.2864,-0.0369,1.0183,-48.626,25.2748,69.1527,0,0,0
-0.2437,-0.0225,1.0449,-54.2901,34.1145,72.2137,0,0,0
-0.219,0.0039,1.0698,-57.0076,45.1374,70.7023,0,0,0
-0.208,0.0073,1.0896,-57.458,53.8397,65.0763,0,0,0
-0.2175,0.0059,1.0759,-53.6336,59.9313,58.8397,0,0,0
-0.2429,-0.0129,1.0701,-49.0992,62.9084,53.542,0,0,0
-0.2756,-0.0408,1.041,-42.3817,60.3359,50.7863,0,0,0
-0.2974,-0.0205,1.0039,-37.2977,55.4275,50.2519,0,0,0
-0.303,0.0027,1.0405,-31.9313,48.6947,49.6794,0,0,0
-0.2834,-0.0112,1.0288,-28.0763,45.687,47.458,0,0,0
-0.2766,-0.0261,1.0105,-22.1527,43.7252,44.2748,0,0,0
-0.2822,-0.0095,1.0132,-15.6489,43.6794,40.0534,0,0,0
-0.2932,-0.0154,0.989,-10.771,42.8092,36.0153,0,0,0
-0.3074,-0.031,0.9775,-7.3664,41.2214,32.6641,0,0,0
-0.3386,-0.0254,0.9417,-5.0076,36.5191,30.5496,0,0,0
-0.4067,-0.0491,0.9521,-6.6336,32.7863,31.2901,0,0,0
-0.4414,-0.0664,0.9546,-9.7176,27.8931,32.8092,0,0,0
-0.4221,-0.0718,0.9507,-7.855,26.5802,38.6336,0,0,0
-0.4241,-0.0686,0.9397,-9.3817,26.0687,43.9771,0,0,0
-0.4058,-0.0396,0.9832,-10.4733,30.5802,46.145,0,0,0
-0.4023,-0.0259,0.9375,-9.8015,34.5038,48.2443,0,0,0
-0.3987,0.0054,0.927,-8.8931,35.2519,48.2977,0,0,0
-0.385,0.0129,0.9128,-9.4122,34.4504,45.8931,0,0,0
-0.3821,0.0281,0.9124,-10.6947,31.626,41.771,0,0,0
-0.3704,0.042,0.9062,-9.3206,26.687,36.4733,0,0,0
-0.3621,0.05,0.9216,-8.2672,22.9618,30.2901,0,0,0
-0.3665,0.0542,0.906,-5.3664,19.3588,24.5038,0,0,0
-0.3735,0.0657,0.9045,-3.5954,15.8397,18.8626,0,0,0
-0.3777,0.0659,0.894,-1.2901,11.9466,13.687,0,0,0
-0.3708,0.0537,0.8989,0.0153,9.0305,9.5725,0,0,0
-0.3821,0.0605,0.8855,0.771,5.8626,5.8626,0,0,0
-0.3796,0.0662,0.8828,1.5802,2.8321,1.7557,0,0,0
-0.3911,0.0479,0.8879,2.0763,1.0229,-1.0534,0,0,0
-0.4016,0.0359,0.8792,1.7023,-0.3359,-2.6489,0,0,0
-0.426,0.0325,0.8867,-1.6031,-1.626,-3.3435,0,0,0
-0.4443,0.0178,0.9028,-5.1221,-0.5191,-1.687,0,0,0
-0.4536,0.0044,0.8977,-6.1069,0.3359,1.8244,0,0,0
-0.4568,0.0066,0.8936,-8.5725,1.0076,5.4504,0,0,0
-0.4421,0.0076,0.9016,-8.5573,1.2901,8.0458,0,0,0
-0.4258,0.0115,0.9014,-9.4733,2.4275,8.2443,0,0,0
-0.4131,0.0266,0.8994,-9.7099,0.9924,7.2061,0,0,0
-0.4221,-0.0049,0.9255,-10.6336,0.8931,5.9389,0,0,0
-0.4446,0.0042,0.9241,-9.313,0.7252,4.0992,0,0,0
-0.4453,-0.0029,0.9175,-7.8244,-0.4885,3.8244,0,0,0
-0.4475,0.0076,0.9067,-6.4427,-2.6031,3.8855,0,0,0
-0.4314,0.0146,0.9209,-5.4656,-3.6641,3.145,0,0,0
-0.4341,-0.0044,0.9214,-5.1298,-3.3817,2.6107,0,0,0
-0.4353,0.0127,0.9155,-4.0305,-3.4351,1.8702,0,0,0
-0.4272,0.0081,0.9199,-3.9618,-4.0763,0.8931,0,0,0
-0.4219,0.0132,0.9224,-3.2748,-3.7176,-0.1145,0,0,0
-0.4319,0.0056,0.9143,-3.2824,-3.8855,-0.5649,0,0,0
-0.4365,0.0093,0.9194,-3.2748,-5.4351,-0.7099,0,0,0
-0.4226,0.0132,0.9236,-2.7863,-6.313,-1.2595,0,0,0
-0.4072,0.0142,0.9304,-1.0916,-6.2214,-2.1603,0,0,0
-0.3965,0.0208,0.9097,0.1145,-7.229,-4.4351,0,0,0
-0.3953,0.033,0.9128,-0.5802,-10.1679,-8.4122,0,0,0
-0.3782,0.0293,0.926,0.8397,-12.8931,-12.9008,0,0,0
-0.3625,0.0447,0.9214,3.4351,-15.6718,-17.7939,0,0,0
-0.3533,0.0591,0.9316,6.855,-19.0763,-23.6641,0,0,0
-0.3108,0.0691,0.9277,11.8244,-22.5878,-31.855,0,0,0
-0.2764,0.0825,0.9263,18.855,-27.3282,-42.5191,0,0,0
-0.2712,0.1243,0.9026,26.0763,-35.7481,-54.8244,0,0,0
-0.2627,0.0969,0.9438,30.7863,-42.9695,-68.3817,0,0,0
-0.2761,0.0486,0.9719,40.4962,-47.1145,-78.4428,0,0,0
-0.3015,0.0647,0.9836,47.6565,-51.1603,-86.9313,0,0,0
-0.3013,0.0371,1.0032,54.5649,-53.3435,-91.2748,0,0,0
-0.302,0.0461,1.0098,58.2443,-54.6336,-95.9313,0,0,0
-0.311,0.0229,1.0605,59.9237,-50.9847,-99.0534,0,0,0
-0.3372,0.0171,1.0393,59.8244,-47.6412,-99.458,0,0,0
-0.3325,0.0154,1.0396,61.0916,-44.6183,-98.7252,0,0,0
-0.3345,0.0015,1.0557,63.2748,-38.5115,-96.7176,0,0,0
-0.3469,0.0066,1.0608,64.9695,-29.6183,-93.6489,0,0,0
-0.3706,-0.0024,1.0435,64.771,-21.4351,-90.313,0,0,0
-0.3911,-0.0208,1.0261,63.8321,-12.9466,-84.4275,0,0,0
-0.4131,-0.0195,0.9827,60.1527,-7.4046,-76.0916,0,0,0
-0.415,-0.0012,0.9644,53.7786,-4.6336,-68.7099,0,0,0
-0.3977,0.0005,0.9724,47.6336,-2.374,-60.8244,0,0,0
-0.3767,0.0249,1.0239,43.1832,2.1069,-55.9237,0,0,0
-0.3608,0.0452,1.0515,43.9695,9.0534,-53.5115,0,0,0
-0.3389,0.0525,1.0342,47.7176,15.1756,-53.6947,0,0,0
-0.3364,0.0564,1.01,49.771,18.5038,-54.1756,0,0,0
-0.3699,0.0403,1.0261,47.4275,21.1221,-52.9466,0,0,0
-0.4058,0.0728,1.0012,45.1603,22.6107,-49.1985,0,0,0
-0.4172,0.0774,1.0208,43.3053,22.5802,-48.229,0,0,0
-0.408,0.0503,1.0164,47.9924,23.7023,-40.7405,0,0,0
-0.3923,0.0693,1.0151,50.8626,24.0763,-35.2137,0,0,0
-0.3848,0.1035,1.021,53.9695,24.9542,-30.3282,0,0,0
-0.3584,0.1145,1.0176,56.8626,27.3053,-29.084,0,0,0
-0.3469,0.1233,0.9824,58.8015,30.2137,-30.916,0,0,0
-0.3665,0.1389,0.9541,55.9847,28.855,-32.4809,0,0,0
-0.384,0.146,0.9968,48.2366,29.2519,-34.3588,0,0,0
-0.3904,0.1443,1.0427,42.5725,35.3664,-34.2901,0,0,0
-0.377,0.1296,1.0625,41.9313,46.7023,-33.9084,0,0,0
-0.4036,0.146,1.0161,46.2366,54.9847,-29.2901,0,0,0
-0.3953,0.1467,0.9705,44.2748,55.4275,-25.5954,0,0,0
-0.4136,0.1704,0.9087,45.0305,51.0992,-22.3817,0,0,0
-0.4265,0.2134,0.9622,44.5878,47.3664,-25.4809,0,0,0
-0.4021,0.1746,1.0002,43.3435,51.2672,-29.5573,0,0,0
-0.3899,0.177,0.9958,44.4351,55.8168,-31.7634,0,0,0
-0.449,0.1621,1.0117,46.9084,63.313,-31.4351,0,0,0
-0.4561,0.178,0.9412,52.0153,67.4122,-30.0916,0,0,0
-0.481,0.1592,0.8833,57.8092,66.2061,-24.6336,0,0,0
-0.4941,0.1885,0.9026,58.1908,64.0458,-23.5878,0,0,0
-0.4968,0.1873,0.8892,56.2443,65.6641,-24.7252,0,0,0
-0.5024,0.176,0.8523,55.0992,67.2519,-25.1069,0,0,0
-0.5122,0.1858,0.7634,55.9847,64.7481,-24.4809,0,0,0
-0.5303,0.2031,0.6782,54.0611,54.9695,-23.2366,0,0,0
-0.5317,0.2168,0.6558,49.2519,43.2061,-24.1908,0,0,0
-0.5413,0.2332,0.6372,43.2672,33.7252,-28.2137,0,0,0
-0.543,0.2236,0.7041,34.7176,28.5954,-30.3664,0,0,0
-0.5669,0.2236,0.7617,23.7863,29.6947,-30.4809,0,0,0
-0.5779,0.1982,0.8586,22.7023,37.0687,-26.9008,0,0,0
-0.5969,0.1907,0.8352,27.9847,45.6489,-20.7863,0,0,0
-0.6838,0.239,0.8823,33.1069,58.1527,-14.7023,0,0,0
-0.6155,0.1338,0.7002,41.3664,55.3206,-19.3206,0,0,0
-0.6165,0.2249,0.5698,38.8702,33.626,-14.7099,0,0,0
-0.6404,0.2664,0.5762,29.0916,12.5649,-18.2748,0,0,0
-0.6262,0.2512,0.6321,26.4046,0.229,-23.6031,0,0,0
-0.6201,0.2466,0.667,22.8931,-5.771,-25.8168,0,0,0
-0.6272,0.2412,0.677,15.8244,-6.0153,-24.7099,0,0,0
-0.6375,0.2446,0.7168,10.916,-1.5573,-20.5191,0,0,0
-0.6138,0.333,0.7383,6.2748,4.7099,-20.8626,0,0,0
-0.6477,0.1824,0.6919,10.4809,9.2137,-10.9847,0,0,0
-0.6775,0.2632,0.6865,3.9847,5.5267,-8.687,0,0,0
-0.666,0.2209,0.6978,5.1679,2.8015,-5.5954,0,0,0
-0.6619,0.2344,0.7021,8.0611,-1.4198,-4.6718,0,0,0
-0.6499,0.2439,0.7083,6.6183,-5.0458,-4.3817,0,0,0
-0.6418,0.251,0.7188,4.5496,-6.4885,-3.9695,0,0,0
-0.6245,0.2524,0.7478,3.313,-6.313,-3.1603,0,0,0
-0.6194,0.2539,0.7512,2.5344,-5.1145,-2.7634,0,0,0
-0.623,0.2644,0.7485,2.1679,-5.0458,-2.5191,0,0,0
-0.6311,0.2659,0.7349,1.458,-5.4122,-3.0992,0,0,0
-0.6384,0.2671,0.7214,1.2672,-7.2901,-3.1145,0,0,0
-0.646,0.2603,0.7219,0.6031,-9.6183,-2.4504,0,0,0
-0.6443,0.2695,0.7297,-0.5344,-11.1679,-2.1832,0,0,0
-0.6389,0.2654,0.741,-1.7634,-11.3282,-0.9466,0,0,0
-0.6331,0.2686,0.7471,-3.3053,-10.771,-0.229,0,0,0
-0.5881,0.4021,0.7578,-7.2366,-9.3053,-5.7023,0,0,0
-0.5989,0.2141,0.7322,-5.8092,-6.8702,-3.6718,0,0,0
-0.6448,0.2898,0.7217,-12.2214,-9.9542,-1.5267,0,0,0
-0.6392,0.248,0.7307,-13.687,-12.3893,0.8702,0,0,0
-0.6306,0.2478,0.7292,-10.7634,-13.2137,2.9847,0,0,0
-0.6252,0.2537,0.7178,-13.9237,-15.0458,3.1908,0,0,0
-0.623,0.2507,0.6978,-18.8702,-17.8244,3.5115,0,0,0
-0.627,0.2354,0.687,-23.084,-21.1527,4.626,0,0,0
-0.6272,0.2026,0.6499,-27.374,-25.1069,7.0458,0,0,0
-0.6526,0.208,0.647,-34.2672,-29.5496,9.0687,0,0,0
-0.6621,0.1997,0.6348,-43.5496,-35.2901,11.8244,0,0,0
-0.6799,0.1836,0.6121,-53.0229,-42.5267,15.5878,0,0,0
-0.6758,0.1655,0.5847,-61.855,-50.145,20.6947,0,0,0
-0.6465,0.1299,0.6089,-70.1298,-55.4046,27.8473,0,0,0
-0.6375,0.0854,0.6426,-82.0382,-58.1679,35.7405,0,0,0
-0.6038,0.1123,0.658,-97.313,-58.6107,49.1221,0,0,0
-0.5942,0.0808,0.6667,-106.9389,-60.1756,62.0992,0,0,0
-0.5339,0.1001,0.74,-111.7023,-61.229,70.6565,0,0,0
-0.4888,0.063,0.7944,-116.9466,-60.1908,74.8092,0,0,0
-0.5002,0.0239,0.8176,-123.8855,-59.8397,76.1145,0,0,0
-0.5818,0.0017,0.8384,-132.2748,-62.313,76.5191,0,0,0
-0.5706,-0.0422,0.895,-140.2595,-62.0382,80.7863,0,0,0
-0.5813,-0.123,0.9351,-139.7099,-62.3893,93.8397,0,0,0
-0.593,-0.1353,0.9895,-134.7099,-63.8015,109.8931,0,0,0
-0.5994,-0.1848,0.9939,-127.6489,-63.3817,126.5954,0,0,0
-0.6633,-0.25,0.8977,-127.8397,-66.7023,144.313,0,0,0
-0.6885,-0.23,0.731,-129.9847,-80.9237,162.542,0,0,0
-0.5796,-0.2556,0.7009,-139.5649,-102.229,184.5802,0,0,0
-0.429,-0.2302,0.8342,-156.374,-115.7405,203.8702,0,0,0
-0.2864,-0.2046,1.0068,-162.7786,-112.5267,213.084,0,0,0
-0.1633,-0.2017,1.293,-156.5191,-90.2748,214.9008,0,0,0
-0.1016,-0.0757,1.4548,-145.8397,-53.0611,205.9542,0,0,0
-0.0156,-0.0024,1.4707,-124.5496,-13.7863,188.9695,0,0,0
0.0405,0.0713,1.4563,-104.8397,22.1908,166.9313,0,0,0
0.0542,0.1296,1.3757,-82.8321,48.0305,140.6031,0,0,0
0.0381,0.1641,1.283,-62.9695,63.084,112.7481,0,0,0
-0.0125,0.1636,1.199,-45.1221,64.0076,86.7099,0,0,0
-0.0771,0.1333,1.1213,-28.4962,56.1908,65.542,0,0,0
-0.1267,0.1211,1.0579,-11.4885,39.6336,49.6641,0,0,0
-0.1584,0.1003,1.0173,2.8168,19.6183,36.7252,0,0,0
-0.1748,0.1138,0.9817,12.2672,-0.5649,26.5267,0,0,0
-0.1794,0.1172,0.9812,17.7786,-17.8473,15.8626,0,0,0
-0.1731,0.1296,0.9724,22.4656,-28.916,5.916,0,0,0
-0.1638,0.1365,0.9958,24.3359,-31.916,-4.542,0,0,0
-0.1672,0.1338,1.0154,24.5267,-26.9466,-14.0229,0,0,0
-0.1814,0.1313,1.0103,22.084,-16.1985,-21.2824,0,0,0
-0.2085,0.1057,0.9897,16.0229,-4.8397,-26.1832,0,0,0
-0.2517,0.0815,0.9773,9.8168,5.8779,-28.2595,0,0,0
-0.2776,0.0764,0.9587,4.8244,12.855,-28.6412,0,0,0
-0.29,0.0728,0.9563,1.8168,18.0,-28.7557,0,0,0
-0.2976,0.0784,0.9438,1.3969,18.8855,-29.4885,0,0,0
-0.2942,0.075,0.9485,3.1069,15.7863,-32.0992,0,0,0
-0.2803,0.0923,0.9619,6.7481,11.374,-37.5954,0,0,0
-0.2903,0.1143,0.9319,11.374,2.0076,-43.9313,0,0,0
-0.2729,0.0691,0.9539,19.3511,-10.4351,-52.458,0,0,0
-0.2673,0.1001,0.99,29.6489,-21.4122,-63.2901,0,0,0
-0.248,0.0898,1.0146,40.1756,-29.6947,-75.1679,0,0,0
-0.2366,0.0864,1.0254,50.2977,-35.4275,-86.3206,0,0,0
-0.2368,0.0696,1.0354,60.5649,-38.9084,-95.6412,0,0,0
-0.2585,0.0481,1.0391,68.9466,-41.4962,-101.6718,0,0,0
-0.2671,0.0286,1.05,74.5115,-39.4656,-105.626,0,0,0
-0.2952,0.0254,1.0286,75.7252,-37.4046,-106.9008,0,0,0
-0.2942,0.0325,0.9626,76.5878,-39.8855,-106.3435,0,0,0
-0.3291,0.001,0.9556,72.8626,-44.0229,-105.1298,0,0,0
-0.3887,-0.0059,0.9766,61.4885,-43.9466,-100.5267,0,0,0
-0.4248,-0.011,0.9751,49.0534,-39.5954,-92.855,0,0,0
-0.4412,-0.0305,0.9895,37.542,-31.1298,-79.6107,0,0,0
-0.4546,-0.0559,0.9844,30.1145,-22.0687,-60.3359,0,0,0
-0.4795,-0.0127,1.061,19.6565,-11.0611,-43.5573,0,0,0
-0.4426,-0.0369,1.062,13.3206,13.7863,-27.1221,0,0,0
-0.429,0.0107,0.9858,3.1527,29.458,-12.6107,0,0,0
-0.3848,0.022,1.0481,-9.2061,43.5496,-2.8855,0,0,0
-0.3425,0.0481,1.075,-15.7176,61.0076,2.4427,0,0,0
-0.3464,-0.0259,1.0903,-19.9771,77.5191,4.0611,0,0,0
-0.3262,0.0916,0.9683,-24.229,80.9847,-0.1527,0,0,0
-0.3408,0.011,0.9517,-21.5267,74.7176,-1.7023,0,0,0
-0.397,0.0876,0.9185,-17.687,60.2366,-3.5802,0,0,0
-0.3923,0.0308,0.9255,-14.3435,46.145,-8.687,0,0,0
-0.3696,0.0344,0.9436,-4.0229,32.6565,-11.2901,0,0,0
-0.3818,0.0364,0.9683,5.916,23.6031,-10.8015,0,0,0
-0.3835,0.0645,0.9609,11.2061,16.4733,-11.229,0,0,0
-0.3652,0.041,0.9827,16.1756,12.458,-12.1603,0,0,0
-0.3582,0.05,0.9612,22.0534,11.2519,-13.0229,0,0,0
-0.356,0.0681,0.9219,23.458,9.6107,-14.9008,0,0,0
-0.3606,0.0764,0.8813,20.3511,6.2595,-16.9847,0,0,0
-0.3674,0.0784,0.8555,17.7023,0.7252,-18.4962,0,0,0
-0.3706,0.0759,0.8611,13.8702,-4.9695,-20.1221,0,0,0
-0.3813,0.0618,0.8735,10.5344,-9.2595,-21.3359,0,0,0
-0.3879,0.0762,0.8994,5.7557,-9.4122,-22.4275,0,0,0
-0.3911,0.0544,0.9072,0.0076,-7.2672,-20.626,0,0,0
-0.4036,0.0508,0.9019,-2.8626,-6.7023,-17.2595,0,0,0
-0.3857,0.0549,0.8975,-3.4351,-8.6489,-15.8321,0,0,0
-0.3752,0.0476,0.8521,-1.2595,-16.2061,-16.916,0,0,0
-0.3623,0.0654,0.8157,1.9924,-29.2443,-21.3817,0,0,0
-0.3418,0.0789,0.7959,2.2595,-43.9542,-27.7939,0,0,0
-0.3369,0.0747,0.844,2.1679,-54.0534,-32.7634,0,0,0
-0.3525,0.0645,0.8591,-2.6947,-59.7099,-35.313,0,0,0
-0.3479,0.0544,0.8818,-9.4427,-63.5191,-33.2519,0,0,0
-0.3411,0.0061,0.8386,-11.3206,-70.0687,-28.8321,0,0,0
-0.3479,0.0176,0.832,-5.7252,-83.6718,-22.8779,0,0,0
-0.2686,-0.0015,0.76,-0.3053,-102.7176,-17.9695,0,0,0
-0.3008,0.0195,1.0198,-0.8397,-106.5725,-13.2977,0,0,0
-0.3145,0.0183,1.1594,1.542,-94.3283,-11.2061,0,0,0
-0.2966,-0.0168,1.0728,2.145,-82.0916,-6.6641,0,0,0
-0.2605,0.0007,1.0212,-0.6107,-72.9466,-4.0382,0,0,0
-0.2244,-0.0171,0.9546,-3.2595,-69.397,0.1832,0,0,0
-0.2214,0.0195,1.0181,-7.0458,-65.1908,2.6794,0,0,0
-0.2278,0.0232,1.041,-13.458,-59.5115,2.4046,0,0,0
-0.2314,0.0063,1.1204,-16.4733,-51.3282,2.7099,0,0,0
-0.2148,-0.0276,1.1494,-14.3893,-39.9084,4.2443,0,0,0
-0.1963,-0.0146,1.104,-9.2595,-28.8244,6.2443,0,0,0
-0.196,-0.0125,1.0947,-6.0153,-22.1985,9.5725,0,0,0
-0.186,0.0002,1.0642,-7.6031,-17.0992,12.2519,0,0,0
-0.1694,0.0049,1.0371,-8.1298,-15.7863,14.0763,0,0,0
-0.155,0.0176,1.012,-7.3511,-17.1908,15.0076,0,0,0
-0.1533,0.0293,1.0142,-8.458,-19.6107,14.687,0,0,0
-0.1362,0.0313,1.0029,-11.2214,-22.1221,13.6183,0,0,0
-0.1331,0.0291,1.0146,-11.2748,-23.8092,13.2443,0,0,0
-0.1208,0.0374,0.999,-10.3511,-26.916,13.1374,0,0,0
-0.127,0.0376,1.0493,-10.6641,-28.3969,12.6641,0,0,0
-0.127,0.0261,1.0667,-11.2137,-25.2443,13.3206,0,0,0
-0.1133,0.0132,1.0569,-10.6412,-21.5344,15.0687,0,0,0
-0.1211,0.0144,1.0649,-11.9008,-16.8931,17.6336,0,0,0
-0.1294,-0.0125,1.0808,-18.1603,-8.3053,20.6794,0,0,0
-0.1753,-0.0273,1.031,-25.3893,-0.7405,27.2214,0,0,0
-0.1846,-0.0332,1.0483,-30.2901,5.1679,35.7786,0,0,0
-0.1682,-0.0493,1.0625,-30.4198,10.1756,46.5115,0,0,0
-0.1768,-0.0706,1.0549,-26.8702,12.3893,55.2366,0,0,0
-0.1997,-0.0505,1.0066,-25.0916,11.3817,60.9771,0,0,0
-0.1907,-0.0669,0.9878,-27.9466,7.1527,65.8931,0,0,0
-0.1543,-0.0442,1.0005,-31.542,2.9771,70.229,0,0,0
-0.1091,-0.0186,1.0408,-31.7023,2.0382,71.5802,0,0,0
-0.0605,0.0063,1.0437,-29.9389,4.1603,69.0382,0,0,0
-0.0198,0.0422,1.0745,-27.4046,8.5496,60.7557,0,0,0
0.0051,0.0593,1.1355,-26.5114,16.4962,50.542,0,0,0
0.0049,0.0579,1.1104,-20.2214,21.8779,39.3206,0,0,0
-0.0144,0.0593,1.0869,-9.3664,22.1679,28.0534,0,0,0
-0.0322,0.0667,1.0544,-0.771,19.1374,16.0153,0,0,0
-0.0322,0.0679,1.0049,4.9237,13.1069,4.5573,0,0,0
-0.0508,0.0745,0.9868,9.9695,4.5649,-6.0153,0,0,0
-0.0654,0.0647,1.0063,12.1908,-2.2366,-15.5649,0,0,0
-0.0874,0.0522,1.0115,13.5954,-4.7405,-23.0611,0,0,0
-0.0994,0.0396,1.022,14.4885,-3.6718,-26.9924,0,0,0
-0.1143,0.0313,1.0334,14.8092,0.5954,-28.374,0,0,0
-0.1208,0.033,1.043,14.0992,6.3588,-28.1832,0,0,0
-0.1365,0.0215,1.0601,13.4656,12.542,-27.3664,0,0,0
-0.155,0.0173,1.061,13.7863,17.8931,-26.4351,0,0,0
-0.1694,0.0105,1.0657,13.6565,20.313,-24.8931,0,0,0
-0.1768,0.0054,1.0691,15.7481,22.542,-23.145,0,0,0
-0.179,0.0034,1.0112,19.2137,20.5191,-22.626,0,0,0
-0.1719,0.0229,0.9927,20.9237,15.5115,-22.5954,0,0,0
-0.1729,0.0251,1.0115,18.6641,11.687,-24.4046,0,0,0
-0.1721,0.0239,1.0439,18.5649,11.2672,-26.3893,0,0,0
-0.1714,0.0161,1.0332,20.5114,11.9466,-27.7939,0,0,0
-0.1846,0.0254,0.9958,21.8244,10.542,-28.9695,0,0,0
-0.199,0.0342,1.0042,19.0763,8.916,-29.4885,0,0,0
-0.2102,0.0164,1.0093,15.7176,7.9847,-28.5038,0,0,0
-0.2229,0.0244,1.0034,15.6031,8.626,-26.3206,0,0,0
-0.2314,0.0273,1.0022,15.9771,8.2214,-23.0153,0,0,0
-0.2175,0.0364,1.0012,14.5115,8.5649,-18.771,0,0,0
-0.21,0.0474,0.9961,13.8855,8.9008,-15.7939,0,0,0
-0.1975,0.0583,0.9717,13.9924,7.9695,-15.2137,0,0,0
-0.1819,0.0725,0.9639,13.1832,5.0305,-16.6412,0,0,0
-0.1792,0.0781,0.9585,11.0458,2.0305,-19.5878,0,0,0
-0.1729,0.0857,0.9519,7.5725,-1.0382,-23.4122,0,0,0
-0.176,0.0845,0.9915,4.374,-1.9313,-26.5344,0,0,0
-0.1743,0.0703,0.9988,3.4198,-0.229,-28.5573,0,0,0
-0.1851,0.0608,1.0225,4.0153,2.8092,-28.7176,0,0,0
-0.1848,0.0642,0.9917,5.8779,4.0305,-28.3817,0,0,0
-0.1855,0.0618,0.9839,7.3053,2.5878,-29.0916,0,0,0
-0.1931,0.0703,0.9292,6.7023,-1.6412,-30.313,0,0,0
-0.186,0.0728,0.9336,3.5115,-6.6641,-32.1679,0,0,0
-0.1736,0.0771,0.9241,-1.4275,-11.1832,-34.1985,0,0,0
-0.1567,0.0903,0.959,-4.9237,-14.7405,-36.1832,0,0,0
-0.146,0.0806,1.0166,-5.0458,-13.8931,-37.4198,0,0,0
-0.1494,0.0762,1.0481,-1.6412,-10.5802,-38.8397,0,0,0
-0.1433,0.0664,1.0261,2.9313,-7.7023,-40.4275,0,0,0
-0.1597,0.062,1.001,4.7634,-6.5954,-41.8092,0,0,0
-0.1707,0.0649,0.9744,3.0153,-7.0305,-43.0992,0,0,0
-0.1873,0.0422,0.968,1.0763,-9.1374,-43.8779,0,0,0
-0.1948,0.0283,0.9678,-0.5573,-10.4656,-43.3969,0,0,0
-0.2095,0.0068,1.0015,-3.9542,-10.7099,-40.7023,0,0,0
-0.2224,-0.0039,1.0457,-6.7176,-7.0992,-37.0992,0,0,0
-0.2324,-0.0261,1.0527,-7.9008,-1.8168,-31.7099,0,0,0
-0.2422,-0.0288,1.0491,-7.1756,2.2519,-26.5496,0,0,0
-0.2512,-0.0391,1.0442,-6.229,5.5038,-19.9924,0,0,0
-0.2512,-0.0393,1.042,-4.4885,6.542,-14.2061,0,0,0
-0.2566,-0.0396,1.0422,-1.2443,5.771,-9.1298,0,0,0
-0.2368,-0.0352,0.9924,2.2061,2.3969,-6.2824,0,0,0
-0.2346,-0.0083,0.9768,2.8397,-3.2824,-6.2595,0,0,0
-0.2275,-0.0027,0.9836,1.0458,-7.8092,-6.6107,0,0,0
-0.2166,-0.0107,1.0139,-0.2595,-9.0382,-6.3588,0,0,0
-0.2134,-0.0083,1.0237,1.4427,-7.8931,-3.8626,0,0,0
-0.2004,0.0037,1.03,2.3053,-5.5344,-1.2214,0,0,0
-0.1843,0.0208,1.0195,2.4275,-3.8473,-0.0916,0,0,0
-0.1743,0.0413,1.0176,3.2519,-3.6565,-0.5344,0,0,0
-0.1672,0.041,1.0117,4.8397,-3.7405,-2.1832,0,0,0
-0.1614,0.0439,0.9951,6.9847,-5.1756,-3.7481,0,0,0
-0.1638,0.0435,0.9893,7.0916,-6.8015,-5.2519,0,0,0
-0.1646,0.0488,0.9863,4.7252,-8.0,-6.2748,0,0,0
-0.1626,0.052,0.9666,1.6107,-8.313,-6.855,0,0,0
-0.1638,0.054,0.9915,-2.7023,-7.8321,-6.1069,0,0,0
-0.1589,0.0435,1.0239,-5.4962,-4.542,-5.0458,0,0,0
-0.1667,0.0408,1.0286,-5.3969,-1.8244,-3.7557,0,0,0
-0.1602,0.0464,1.0352,-5.0534,0.0611,-2.4885,0,0,0
-0.1602,0.0439,1.0312,-4.1374,0.7557,-1.916,0,0,0
-0.1589,0.0396,1.022,-2.5115,0.0,-2.8321,0,0,0
-0.1497,0.0364,0.9995,-1.2443,-1.9542,-4.5725,0,0,0
-0.1555,0.0513,0.9963,-2.3053,-4.458,-7.3359,0,0,0
-0.1604,0.0374,1.0293,-4.4809,-4.084,-9.0687,0,0,0
-0.1692,0.0217,1.0388,-3.0,-1.8244,-8.6412,0,0,0
-0.1785,0.021,1.0469,-0.3511,1.3435,-6.9237,0,0,0
-0.1807,0.0198,1.0232,0.2748,3.1832,-4.7176,0,0,0
-0.1782,0.033,0.9944,-0.6947,2.3359,-3.3893,0,0,0
-0.1782,0.0356,0.9861,-1.7405,-0.0534,-2.9618,0,0,0
-0.1699,0.0359,0.9829,-2.5573,-3.8397,-3.6489,0,0,0
-0.1655,0.0378,1.0073,-3.2061,-6.1527,-5.3817,0,0,0
-0.1655,0.0286,1.0215,-2.8168,-6.1985,-6.8702,0,0,0
-0.1667,0.0247,1.0417,-1.9008,-3.7405,-6.6183,0,0,0
-0.1677,0.0193,1.0403,-1.4275,-0.5344,-5.7634,0,0,0
-0.1733,0.0222,1.0237,-1.0076,1.7328,-4.4122,0,0,0
-0.1753,0.0293,1.0164,-1.4885,2.7099,-3.8626,0,0,0
-0.1733,0.0234,0.9915,-3.0382,1.9237,-4.3206,0,0,0
-0.1748,0.0313,0.9866,-3.9847,0.1374,-5.2214,0,0,0
-0.1816,0.0325,1.0029,-4.7405,-1.7939,-5.6412,0,0,0
-0.1814,0.0164,1.0151,-4.8092,-2.7481,-5.4351,0,0,0
-0.1846,0.0181,1.0247,-4.3817,-2.771,-4.374,0,0,0
-0.1819,0.0217,1.0198,-3.1298,-2.5954,-4.2137,0,0,0
-0.1824,0.0249,1.0178,-2.8397,-2.2137,-3.8779,0,0,0
-0.1833,0.0259,1.0115,-3.7405,-2.1603,-3.9389,0,0,0
-0.1824,0.019,1.0098,-4.1069,-2.4198,-3.2061,0,0,0
-0.1782,0.0225,1.0103,-4.6489,-2.8931,-2.6565,0,0,0
-0.1746,0.019,1.0063,-4.1679,-2.8015,-1.6565,0,0,0
-0.1707,0.0244,1.0161,-4.1756,-3.1069,-1.1832,0,0,0
-0.1694,0.0186,1.0254,-4.8015,-2.2214,-1.0534,0,0,0
-0.1663,0.0178,1.0376,-5.2519,-0.7634,-0.9313,0,0,0
-0.1628,0.0134,1.0305,-3.7405,0.0916,-0.5267,0,0,0
-0.1587,0.0178,1.0176,-1.9313,0.0229,-0.7023,0,0,0
-0.1548,0.0322,0.9946,-1.4885,-2.626,-1.3359,0,0,0
-0.158,0.032,1.0078,-2.2443,-5.5115,-2.5725,0,0,0
-0.1558,0.0232,1.0222,-2.542,-5.7023,-3.5649,0,0,0
-0.1553,0.0168,1.0398,-1.7405,-4.2137,-3.3053,0,0,0
-0.1606,0.0183,1.0415,-1.1679,-1.2214,-3.0382,0,0,0
-0.1587,0.019,1.0391,-1.6794,2.4046,-2.1145,0,0,0
-0.1545,0.0186,1.0042,-1.8397,3.2443,-1.1832,0,0,0
-0.1638,0.0308,0.9851,-1.3969,0.687,-0.9008,0,0,0
-0.1667,0.0291,0.9983,-3.1374,-1.9695,-1.1527,0,0,0
-0.1672,0.0259,1.0183,-4.3282,-1.5725,-2.3206,0,0,0
-0.1631,0.0115,1.0254,-3.1221,0.1603,-1.9771,0,0,0
-0.1592,0.0168,1.0012,-3.3893,0.9084,-1.0229,0,0,0
-0.1697,0.0203,0.9917,-4.2748,-1.084,-1.1374,0,0,0
-0.1702,0.0212,1.009,-4.3282,-3.5344,-1.5573,0,0,0
-0.1692,0.0103,1.021,-3.7786,-3.8626,-2.2366,0,0,0
-0.1567,0.0149,1.0305,-3.5267,-3.0076,-2.0458,0,0,0
-0.1682,0.0159,1.0215,-3.7023,-2.4733,-1.5573,0,0,0
-0.1646,0.0222,1.0291,-4.7023,-1.3817,-1.7099,0,0,0
-0.1614,0.0166,1.0303,-4.7786,0.0153,-1.3053,0,0,0
-0.1626,0.0139,1.0347,-3.8626,1.4122,-1.1298,0,0,0
-0.1587,0.0156,1.0244,-3.2137,2.2595,-0.3511,0,0,0
-0.1633,0.0188,1.0107,-2.9542,1.8779,0.2519,0,0,0
-0.1707,0.0212,1.012,-3.6336,0.7328,-0.2519,0,0,0
-0.1638,0.0203,1.0203,-3.9008,-0.6565,-0.5878,0,0,0
-0.166,0.0215,1.0222,-2.9924,-1.084,-1.8015,0,0,0
-0.1648,0.0222,1.0205,-1.9847,-1.8855,-2.5191,0,0,0
-0.1672,0.0149,1.0239,-0.6183,-2.1527,-2.7328,0,0,0
-0.1672,0.0232,1.0027,-0.2366,-3.3511,-2.7634,0,0,0
-0.1716,0.0203,1.0085,-0.687,-3.7023,-2.6183,0,0,0
-0.1643,0.0149,1.0154,-1.8931,-2.5573,-2.2901,0,0,0
-0.1677,0.0156,1.0144,-2.8702,-0.4275,-1.7557,0,0,0
-0.1731,0.0117,1.0088,-3.8702,0.2595,-0.7023,0,0,0
-0.1772,0.009,1.0159,-3.8626,0.5802,0.2901,0,0,0
-0.1738,0.0115,1.0212,-3.687,0.5954,0.5115,0,0,0
-0.1675,0.0176,1.0144,-2.855,-0.1374,0.855,0,0,0
-0.1594,0.019,1.0229,-2.145,-0.9389,1.3359,0,0,0
-0.1504,0.0239,1.0242,-1.4275,-1.2595,1.084,0,0,0
-0.1472,0.0242,1.0154,-0.3893,-1.6947,-0.1527,0,0,0
-0.146,0.0295,1.0156,-0.8244,-2.0153,-2.0916,0,0,0
-0.1477,0.0251,1.0349,-2.4809,-0.5115,-3.1832,0,0,0
-0.1519,0.0142,1.0208,-2.7176,1.7328,-3.3893,0,0,0
-0.1584,0.0251,1.012,-2.7786,1.6565,-3.0153,0,0,0
-0.1609,0.0173,1.0132,-3.4198,0.3206,-2.3893,0,0,0
-0.1646,0.0173,1.0176,-2.6565,-0.8015,-2.5038,0,0,0
-0.1611,0.0144,1.0125,-1.5649,-1.7099,-2.8779,0,0,0
-0.1572,0.0095,1.0161,-1.229,-1.3817,-2.9618,0,0,0
-0.1523,0.0112,1.0195,-1.7939,-0.5038,-2.9313,0,0,0
-0.1611,0.0073,1.0151,-2.4122,0.3817,-2.7176,0,0,0
-0.1611,0.0037,1.0164,-2.9084,0.1374,-2.9771,0,0,0
-0.1609,-0.0002,1.0239,-3.2672,0.6947,-2.7176,0,0,0
-0.168,-0.0076,1.0271,-2.7786,0.9847,-2.0382,0,0,0
-0.168,-0.0054,1.0173,-1.8626,1.1221,-1.2595,0,0,0
-0.1636,-0.0078,1.0154,-1.3053,1.7863,-0.5573,0,0,0
-0.1633,-0.0007,1.001,-0.6947,0.3969,-0.7786,0,0,0
-0.1667,0.0059,1.012,-1.1527,-0.9542,-1.3206,0,0,0
-0.1599,-0.0007,1.0171,-1.7328,-1.6107,-1.2443,0,0,0
-0.1604,-0.0015,1.0166,-1.0,-1.313,-0.5038,0,0,0
-0.1682,0.0051,1.0203,-0.5344,-0.4198,-0.2595,0,0,0
-0.166,0.0063,1.0164,-0.3511,1.2061,-0.4733,0,0,0
-0.1663,0.0122,1.0044,-1.0687,1.9466,-0.4733,0,0,0
-0.1702,0.012,1.0049,-2.0534,1.6718,-0.1221,0,0,0
-0.1694,0.0161,1.0024,-3.1603,1.3817,0.1527,0,0,0
-0.1746,0.0198,1.0027,-4.0992,0.2748,0.6565,0,0,0
-0.1709,0.0205,1.0134,-4.0458,-0.6336,0.626,0,0,0
-0.167,0.0183,1.0232,-3.7481,-0.6183,0.6107,0,0,0
-0.1599,0.0164,1.0212,-2.2443,-0.3282,-0.0076,0,0,0
-0.1572,0.0242,1.0151,-1.7176,-0.916,-0.2748,0,0,0
-0.1543,0.0288,1.022,-2.2214,-1.0763,-0.8779,0,0,0
-0.155,0.0249,1.0303,-2.9695,0.1069,-1.8397,0,0,0
-0.1631,0.022,1.0325,-2.3053,1.1603,-2.0992,0,0,0
-0.1643,0.0161,1.022,-1.4198,1.7863,-1.771,0,0,0
-0.168,0.0149,1.0237,-1.2366,2.0687,-1.5115,0,0,0
-0.166,0.0212,1.0129,-1.313,1.2824,-1.8779,0,0,0
-0.1633,0.02,1.0125,-1.145,1.2214,-2.1374,0,0,0
-0.1611,0.0134,0.9958,-1.7023,0.2748,-2.6412,0,0,0
-0.1672,0.0164,1.0044,-2.5267,-1.1908,-2.9618,0,0,0
-0.1753,0.0115,1.0205,-2.6031,-1.5115,-3.8626,0,0,0
-0.1755,0.0063,1.02,-1.8244,-0.7634,-3.5191,0,0,0
-0.1763,-0.0007,1.0205,-0.2977,-0.0458,-2.5191,0,0,0
-0.178,0.0054,1.0159,0.3435,0.9618,-1.7252,0,0,0
-0.177,0.0105,1.0015,-0.1985,0.7863,-1.3282,0,0,0
-0.1726,0.0071,0.9932,-1.2366,0.2519,-1.7023,0,0,0
-0.175,0.0144,1.0024,-2.7863,0.1374,-1.7023,0,0,0
-0.1741,0.0132,1.0056,-3.6565,0.626,-1.0076,0,0,0
-0.1658,0.0146,1.0066,-3.8626,0.6412,-0.0763,0,0,0
-0.1641,0.0154,1.0125,-2.9313,0.1985,-0.3969,0,0,0
-0.1682,0.0159,1.0161,-2.3893,-0.7099,-1.229,0,0,0
-0.1702,0.0151,1.0168,-2.0534,-1.458,-1.9618,0,0,0
-0.1643,0.0105,1.0186,-1.5191,-1.6489,-2.1069,0,0,0
-0.1631,0.01,1.0122,-1.7557,-1.4656,-2.1832,0,0,0
-0.1636,0.0139,1.0144,-1.9771,-0.7328,-2.374,0,0,0
-0.1636,0.0125,1.019,-2.4427,-0.1527,-2.4656,0,0,0
-0.167,0.0107,1.0183,-3.084,0.9389,-2.084,0,0,0
-0.1687,0.0142,1.012,-2.9924,1.1221,-1.9695,0,0,0
-0.1719,0.0149,1.0151,-3.3664,0.2137,-2.0687,0,0,0
-0.1692,0.0107,1.0112,-3.1756,-0.7634,-2.1145,0,0,0
-0.1697,0.0024,1.0183,-2.1374,-2.1679,-1.9771,0,0,0
-0.1616,0.0061,1.0195,-0.7557,-2.9237,-1.6412,0,0,0
-0.1616,0.0049,1.0203,-0.0687,-3.0916,-2.1908,0,0,0
-0.1562,0.0085,1.0195,-0.0611,-2.4733,-3.0458,0,0,0
-0.1589,0.0103,1.0115,-0.4885,-1.6947,-3.5267,0,0,0
-0.1675,0.0051,1.0144,-1.4656,-1.0076,-3.8473,0,0,0
-0.1716,0.0029,1.0259,-2.6107,0.3893,-3.0687,0,0,0
-0.1787,0.0059,1.0142,-3.0,1.8473,-2.374,0,0,0
-0.176,0.0015,1.0044,-2.6107,1.6107,-0.9389,0,0,0
-0.1746,0.0044,0.9968,-2.6107,-0.1527,-0.1221,0,0,0
-0.1763,0.012,1.0027,-3.3282,-2.1069,-0.3817,0,0,0
-0.1724,0.0063,1.0166,-2.9771,-3.0992,-1.4122,0,0,0
-0.168,0.0088,1.0254,-1.9618,-3.1679,-1.1069,0,0,0
-0.1667,0.0107,1.0288,-2.0153,-2.0992,-1.2748,0,0,0
-0.1641,0.0139,1.0151,-1.2672,-1.1679,-2.1298,0,0,0
-0.165,0.0166,1.0151,-1.5573,-0.5115,-2.7252,0,0,0
-0.1704,0.012,1.0098,-2.1756,-0.7863,-3.0,0,0,0
-0.1724,0.0078,1.0093,-2.2443,-1.0153,-3.0153,0,0,0
-0.1741,0.0073,1.0098,-2.8702,-1.2061,-2.1069,0,0,0
-0.176,0.0012,1.0261,-2.5725,-0.542,-1.0076,0,0,0
-0.1716,0.0042,1.0256,-1.3817,-0.2061,0.626,0,0,0
-0.1597,0.011,1.0132,-0.4885,0.1069,1.0992,0,0,0
-0.156,0.0132,1.0061,-0.0534,-0.4198,0.3359,0,0,0
-0.1533,0.0159,0.9946,-0.9695,-1.8931,-0.8015,0,0,0
-0.1475,0.0205,0.9993,-1.9618,-3.1069,-2.7328,0,0,0
-0.1433,0.0112,1.0173,-2.1145,-3.0763,-3.9542,0,0,0
-0.1489,0.0173,1.0234,-1.626,-1.6412,-4.7099,0,0,0
-0.1533,0.0127,1.0146,-0.229,-0.4885,-5.084,0,0,0
-0.1643,0.0144,1.0046,0.6794,0.1756,-5.1069,0,0,0
-0.1682,0.0071,0.9866,1.3969,-0.5191,-5.1603,0,0,0
-0.177,0.0142,0.9834,1.3435,-2.7481,-4.8702,0,0,0
-0.1733,0.0061,0.9687,-0.084,-4.7939,-4.8321,0,0,0
-0.1672,0.0254,0.9846,-1.6183,-7.7023,-5.7099,0,0,0
-0.1616,0.0234,1.0046,-3.0,-8.2443,-7.084,0,0,0
-0.1592,0.0254,1.0325,-3.9237,-6.5649,-7.6183,0,0,0
-0.1538,0.0134,1.0396,-3.3206,-4.3435,-7.5878,0,0,0
-0.1545,0.0166,1.0432,-2.7176,-1.2672,-7.5573,0,0,0
-0.1555,0.0154,1.0369,-2.2748,0.5496,-8.2061,0,0,0
-0.1548,0.0173,1.0195,-1.6489,0.3053,-8.9618,0,0,0
-0.1531,0.0205,1.0139,-1.3588,-2.1679,-10.2748,0,0,0
-0.1572,0.0227,1.0176,-0.7405,-5.0153,-11.2214,0,0,0
-0.1531,0.0161,1.0261,0.1069,-6.5496,-11.9771,0,0,0
-0.1533,0.0181,1.0225,1.1527,-6.6412,-12.8321,0,0,0
-0.1501,0.0229,1.0259,0.4809,-5.3969,-13.6107,0,0,0
-0.1533,0.0144,1.0247,-0.1145,-3.9237,-13.9695,0,0,0
-0.1531,0.0083,1.0215,-0.6565,-2.5573,-14.1145,0,0,0
-0.1526,0.0066,1.0295,-1.4504,-0.9237,-13.4427,0,0,0
-0.1526,-0.0073,1.0212,-1.9618,0.2137,-12.7939,0,0,0
-0.1594,0.0002,1.0266,-2.8168,1.1374,-12.1069,0,0,0
-0.1575,0.0044,1.022,-3.6565,1.2519,-11.4733,0,0,0
-0.1562,0.0015,1.0322,-3.4198,1.4427,-11.1603,0,0,0
-0.1453,-0.0078,1.0325,-2.2672,1.4122,-10.6794,0,0,0
-0.1445,-0.0068,1.0422,-0.7328,1.9008,-10.9389,0,0,0
-0.1384,-0.0044,1.041,1.2214,1.5878,-11.6489,0,0,0
-0.1399,-0.0066,1.0195,2.6489,1.1985,-13.2214,0,0,0
-0.1357,0.0049,1.0078,2.6412,-0.2672,-14.9389,0,0,0
-0.1372,0.0063,0.9988,1.4198,-1.5344,-16.5267,0,0,0
-0.1074,0.0393,0.981,0.8473,-3.3359,-18.4275,0,0,0
-0.0632,0.0398,1.0166,-0.4198,-2.0305,-22.5038,0,0,0
-0.05,0.0518,1.0457,-0.9237,2.2519,-28.6412,0,0,0
-0.0627,0.0503,1.0476,0.4351,7.0,-35.084,0,0,0
-0.0911,0.04,1.0349,1.0916,9.6565,-39.4427,0,0,0
-0.1221,0.022,1.0303,1.3511,10.3053,-42.0992,0,0,0
-0.1582,0.0137,1.0103,2.2901,9.8015,-42.8092,0,0,0
-0.1804,-0.0017,1.0042,2.7557,7.4656,-42.0534,0,0,0
-0.1882,-0.01,0.9878,1.084,5.1145,-40.0229,0,0,0
-0.2036,-0.0303,0.9949,-0.2366,3.9237,-35.9008,0,0,0
-0.2244,-0.0242,1.001,-2.3053,2.5649,-31.1908,0,0,0
-0.2297,-0.0427,1.0061,-2.9466,1.8397,-26.4046,0,0,0
-0.2439,-0.0427,1.0042,-3.6641,1.2901,-21.0382,0,0,0
-0.2554,-0.0554,1.0034,-4.084,1.0458,-15.8702,0,0,0
-0.262,-0.0642,0.9951,-4.0992,0.5802,-9.4275,0,0,0
-0.2512,-0.0688,0.9919,-3.687,-1.2519,-3.6794,0,0,0
-0.2439,-0.0676,0.9917,-3.542,-3.8626,1.2443,0,0,0
-0.2249,-0.0605,0.998,-3.8855,-6.542,4.4275,0,0,0
-0.2078,-0.0505,1.0161,-4.313,-7.6412,6.5344,0,0,0
-0.1873,-0.0378,1.031,-4.771,-7.5115,7.6031,0,0,0
-0.1685,-0.0403,1.0449,-4.0763,-5.6489,8.687,0,0,0
-0.1604,-0.0232,1.0322,-1.3664,-4.6107,8.458,0,0,0
-0.1477,-0.0125,1.0269,0.0687,-5.0382,7.1374,0,0,0
-0.1404,-0.0002,1.0132,-0.4198,-5.8321,4.6336,0,0,0
-0.1421,0.0078,1.0054,-0.5115,-6.9237,2.3053,0,0,0
-0.1377,0.0059,1.0078,0.5191,-6.8473,1.0305,0,0,0
-0.1367,0.0059,1.011,-0.3282,-6.6336,0.6412,0,0,0
-0.145,0.0059,1.0139,-1.1069,-5.5649,1.374,0,0,0
-0.1401,0.0107,1.0137,-2.1603,-4.9084,1.5802,0,0,0
-0.1333,0.0029,1.021,-2.9847,-3.229,1.2443,0,0,0
-0.1333,0.0027,1.022,-3.0458,-2.0763,1.8015,0,0,0
-0.1328,0.0051,1.0266,-2.5038,-1.6947,1.9008,0,0,0
-0.1211,0.0068,1.0298,-2.9466,-1.084,1.4275,0,0,0
-0.1296,0.0022,1.0151,-3.0305,-1.8702,1.1832,0,0,0
-0.127,0.0022,1.0244,-3.5649,-2.313,-0.4733,0,0,0
-0.1335,-0.0029,1.0327,-3.9618,-2.1221,-1.1679,0,0,0
-0.1333,-0.0076,1.0342,-3.5115,-1.1298,-1.9771,0,0,0
-0.1421,-0.0151,1.0325,-2.5115,0.5191,-1.6718,0,0,0
-0.1387,-0.0159,1.0371,-0.5038,0.4885,-0.6794,0,0,0
-0.1438,-0.0176,1.0166,-2.6336,1.1679,-1.4504,0,0,0
-0.1482,-0.0154,1.01,-1.4046,0.7481,-1.0611,0,0,0
-0.1514,-0.0132,1.0159,-0.7252,0.0916,-1.3588,0,0,0
-0.1631,-0.0139,1.0144,-1.2214,-0.0534,-1.3282,0,0,0
-0.158,-0.0146,1.0015,-1.084,-0.6794,-0.542,0,0,0
-0.1487,-0.0137,1.0046,-0.7252,-1.5115,0.0,0,0,0
-0.1545,-0.0005,1.0154,-1.9084,-1.6565,0.2137,0,0,0
-0.1475,-0.0098,1.0249,-2.5344,-0.4427,0.1832,0,0,0
-0.1528,-0.011,1.0269,-2.7557,0.7481,0.7023,0,0,0
-0.1555,-0.0088,1.0239,-2.0916,2.1069,0.9466,0,0,0
-0.1545,-0.0066,1.0151,-1.8397,2.2443,1.0,0,0,0
-0.1575,-0.0076,1.0051,-2.9847,1.6336,0.6336,0,0,0
-0.1599,-0.0005,1.0159,-3.6565,0.1908,-0.2137,0,0,0
-0.1572,-0.0095,1.0278,-3.8321,-0.4733,-0.313,0,0,0
-0.1565,-0.0103,1.0305,-2.771,-1.0992,0.0458,0,0,0
-0.1577,-0.0129,1.0273,-0.9084,-2.1832,-0.0153,0,0,0
-0.1575,-0.0117,1.032,-0.4656,-2.313,-0.3282,0,0,0
-0.1604,-0.01,1.0291,-0.2366,-1.6412,-0.4046,0,0,0
-0.1484,-0.0037,1.0171,-0.7252,-0.8931,0.0153,0,0,0
-0.146,-0.0051,1.0198,-1.8168,0.458,0.0687,0,0,0
-0.146,0.0,1.02,-2.4733,1.8855,-0.1679,0,0,0
-0.1487,-0.001,1.012,-2.5878,2.1298,-0.6107,0,0,0
-0.1538,0.0,1.0059,-3.0458,0.3511,-1.2137,0,0,0
-0.156,0.0015,1.0107,-3.6947,-1.6718,-1.458,0,0,0
-0.158,0.001,1.0249,-3.3511,-2.8779,-1.7481,0,0,0
-0.156,-0.0117,1.0378,-3.7634,-2.0687,-0.6641,0,0,0
-0.1589,-0.0112,1.02,-2.5496,-0.6336,0.0,0,0,0
-0.1475,-0.0068,1.0178,-0.8779,0.2748,0.0534,0,0,0
-0.1436,0.0073,1.0186,-2.5038,0.6183,-0.2061,0,0,0
-0.1387,0.0022,0.9954,-2.7863,-1.1145,-1.4122,0,0,0
-0.146,0.0,1.0171,-3.1221,-1.8779,-2.5649,0,0,0
-0.1489,-0.0034,1.0242,-3.8397,-1.4427,-3.6031,0,0,0
-0.1504,-0.009,1.0391,-2.626,-1.1679,-4.0763,0,0,0
-0.1553,-0.012,1.0234,-1.6718,-0.1756,-3.3435,0,0,0
-0.1572,-0.0068,1.0137,-0.3282,-0.3359,-2.3588,0,0,0
-0.1565,-0.0142,1.0037,-0.5344,0.0076,-2.2214,0,0,0
-0.1543,-0.0146,0.9902,-1.7634,-0.2824,-2.0458,0,0,0
-0.156,-0.0132,1.0051,-3.2061,-0.4427,-1.5649,0,0,0
-0.1609,-0.0154,1.0078,-4.2824,0.0763,-1.1374,0,0,0
-0.1575,-0.0166,1.0164,-3.374,0.2824,-0.6183,0,0,0
-0.1567,-0.0127,1.0139,-2.8702,0.1603,-0.3893,0,0,0
-0.1553,-0.0129,1.0139,-1.5878,0.2137,-0.0229,0,0,0
-0.1487,-0.0093,1.0159,-0.5954,-0.5038,-0.4351,0,0,0
-0.1492,-0.0105,1.0017,-1.0,-0.8244,-0.8626,0,0,0
-0.1497,-0.0122,1.0024,-1.6107,-1.6489,-0.7176,0,0,0
-0.1494,-0.0137,1.0125,-3.7176,-1.2901,-0.6031,0,0,0
-0.1558,-0.0269,1.0239,-2.4122,-1.7099,-0.1374,0,0,0
-0.1484,-0.0107,1.0276,-3.5802,-0.5038,-0.084,0,0,0
-0.1509,-0.0144,1.0325,-1.2214,-0.5038,0.1221,0,0,0
-0.1453,-0.0112,1.0154,-1.3053,-0.3969,-0.1832,0,0,0
-0.1511,-0.0071,1.0139,-2.5802,-0.542,-0.3359,0,0,0
-0.146,-0.012,1.0251,-3.2061,-0.2519,-0.8092,0,0,0
-0.1497,-0.0044,1.0415,-4.1756,-0.0229,-1.2366,0,0,0
-0.1487,-0.009,1.0281,-3.3359,0.1985,-1.2748,0,0,0
-0.1543,-0.01,1.0352,-2.0,-0.0916,-0.8855,0,0,0
-0.1514,-0.0171,1.0132,-0.8931,-0.5573,-1.6412,0,0,0
-0.1504,-0.0085,1.0161,-0.5954,-1.687,-2.0763,0,0,0
-0.1577,-0.0142,1.0081,-1.4809,-1.9695,-2.1832,0,0,0
-0.1555,-0.0205,1.0198,-1.4122,-1.6183,-2.0076,0,0,0
-0.1565,-0.0208,1.0242,-1.5191,-0.1679,-1.542,0,0,0
-0.1567,-0.0103,1.0156,-1.9771,0.7405,-0.2443,0,0,0
-0.1548,-0.0129,1.011,-2.2519,1.1832,0.5954,0,0,0
-0.1467,-0.0063,1.0073,-2.9313,0.6183,0.9237,0,0,0
-0.1465,-0.0024,1.0071,-3.0076,-0.5038,0.1069,0,0,0
-0.1431,-0.01,1.0168,-3.2977,-1.4198,-0.9084,0,0,0
-0.1472,-0.0156,1.0205,-2.626,-1.3664,-0.8015,0,0,0
-0.137,-0.0154,1.0261,0.1832,-1.6031,-1.3893,0,0,0
-0.1438,-0.0112,1.019,-1.7939,-0.6718,-1.9618,0,0,0
-0.1458,-0.0164,1.0149,-0.4733,-0.5573,-2.0153,0,0,0
-0.1416,-0.0146,0.9976,-1.7634,0.2443,-2.2824,0,0,0
-0.1531,-0.0183,1.0212,-3.0763,0.7099,-2.7481,0,0,0
-0.1538,-0.0198,1.01,-3.4351,1.7557,-2.313,0,0,0
-0.156,-0.0178,1.0042,-3.1374,1.1221,-1.0916,0,0,0
-0.1636,-0.019,1.009,-3.5496,0.2137,-0.2748,0,0,0
-0.1624,-0.0234,1.0166,-3.2748,-0.9466,0.1298,0,0,0
-0.157,-0.0176,1.0256,-2.4351,-0.8779,0.1527,0,0,0
-0.1558,-0.0144,1.0283,-1.6718,-0.7405,-0.0153,0,0,0
-0.1501,-0.0144,1.0161,-1.0076,-0.2443,-0.458,0,0,0
-0.1538,-0.0139,1.0146,-1.145,0.0916,-0.7405,0,0,0
-0.157,-0.0142,1.0112,-1.9008,-0.2748,-0.8168,0,0,0
-0.1633,-0.0164,1.0083,-2.9542,-1.2519,-0.542,0,0,0
-0.1614,-0.0156,1.0193,-2.8244,-2.0458,0.0,0,0,0
-0.1602,-0.0149,1.0261,-2.3206,-2.2366,0.4275,0,0,0
-0.1484,-0.0093,1.0366,-1.3359,-1.0992,0.5038,0,0,0
-0.1411,-0.0081,1.0229,-0.9008,-0.3511,0.5649,0,0,0
-0.1396,-0.0046,1.0098,-1.2824,0.2137,0.3282,0,0,0
-0.1428,-0.0059,1.0156,-2.1756,0.3359,-0.0763,0,0,0
-0.1433,-0.0146,1.0159,-2.771,1.229,-0.3053,0,0,0
-0.1465,-0.0112,1.0115,-2.2443,0.7634,-0.3359,0,0,0
-0.1504,-0.0105,1.0195,-2.626,0.0687,-0.8092,0,0,0
-0.1484,-0.0085,1.0061,-1.1908,-0.6641,-1.4351,0,0,0
-0.1506,-0.0022,1.0222,-1.9542,-2.0305,-1.6107,0,0,0
-0.1479,-0.0125,1.0203,-1.7252,-1.9008,-2.0153,0,0,0
-0.145,-0.0154,1.0327,-1.2519,-0.8702,-1.2214,0,0,0
-0.1501,-0.0168,1.0188,-0.9466,0.1145,-1.0458,0,0,0
-0.1506,-0.0134,1.0183,-0.9542,0.9389,-0.7481,0,0,0
-0.1506,-0.0188,1.0083,-1.0534,1.3588,-0.8321,0,0,0
-0.1604,-0.0183,1.0061,-2.4504,0.9313,-0.5038,0,0,0
-0.155,-0.0183,1.0051,-2.7252,0.0458,-0.5115,0,0,0
-0.1558,-0.0176,1.0046,-2.687,-0.9084,-0.374,0,0,0
-0.1526,-0.0188,1.0051,-2.1832,-1.916,-0.4198,0,0,0
-0.1575,-0.02,1.0164,-1.6412,-1.9542,-0.4122,0,0,0
-0.1521,-0.0085,0.9978,1.084,-2.5878,-0.5573,0,0,0
-0.1492,-0.0076,1.0244,-0.8092,-2.9542,0.0305,0,0,0
-0.1489,-0.0117,1.0134,-1.8244,-3.0382,-0.4198,0,0,0
-0.1482,-0.01,1.0186,-1.0,-3.2901,-0.916,0,0,0
-0.1479,-0.012,1.0176,-1.5649,-1.9847,-1.4122,0,0,0
-0.1475,-0.0083,1.0295,-0.7786,-0.9466,-1.0458,0,0,0
-0.145,-0.0061,1.0276,-1.5725,0.6412,-0.542,0,0,0
-0.1394,-0.0012,1.0168,-1.3893,0.855,-0.7252,0,0,0
-0.1448,-0.001,1.0161,-2.6107,0.0534,-1.5725,0,0,0
-0.1426,-0.0022,1.0093,-2.5802,-0.4046,-2.4122,0,0,0
-0.1465,0.0,1.0112,-2.2595,-1.0611,-2.9542,0,0,0
-0.1472,-0.0122,1.0315,-2.5038,-0.3893,-2.9237,0,0,0
-0.1514,-0.0193,1.0173,-1.8779,-0.3435,-2.5267,0,0,0
-0.1567,-0.022,1.0095,-1.3206,-0.8473,-1.8626,0,0,0
-0.1584,-0.0518,1.0947,-0.2595,-0.374,-0.5191,0,0,0
-0.157,-0.0154,1.0305,-3.6183,1.855,-0.1069,0,0,0
-0.1594,-0.0332,1.0122,-2.0992,0.6031,0.374,0,0,0
-0.1519,-0.0315,1.0242,-2.5496,0.6107,0.1221,0,0,0
-0.1577,-0.0291,1.0212,-2.2137,-0.2824,-0.8626,0,0,0
-0.156,-0.0295,1.0176,-1.4504,-2.0763,-0.9008,0,0,0
-0.1602,-0.0261,1.0164,-0.5191,-3.9313,-0.3206,0,0,0
-0.1545,-0.0139,1.0149,-0.0763,-5.0611,0.0076,0,0,0
-0.1411,-0.0154,1.0171,-0.2977,-4.5038,-0.2061,0,0,0
-0.134,-0.0117,1.0068,-0.9008,-3.5496,-0.0992,0,0,0
-0.1338,-0.0015,1.011,-2.4656,-2.0229,-0.4885,0,0,0
-0.1353,-0.0122,1.0259,-3.1374,-0.9618,-1.1069,0,0,0
-0.1377,-0.02,1.0303,-2.5038,0.8779,-1.0,0,0,0
-0.1511,-0.0117,1.0342,-1.5649,1.7939,-0.8244,0,0,0
-0.1411,-0.01,1.0271,-0.7557,1.458,-0.6183,0,0,0
-0.1357,-0.0083,1.0068,-1.374,0.1145,-0.9847,0,0,0
-0.1443,-0.0051,1.01,-2.1527,-1.3435,-2.1145,0,0,0
-0.1428,-0.0103,1.0244,-3.374,-1.5344,-2.7023,0,0,0
-0.1482,-0.0178,1.0256,-3.4198,0.313,-2.2824,0,0,0
-0.1543,-0.0222,1.0322,-2.4733,2.1985,-1.3359,0,0,0
-0.1519,-0.0242,1.0212,-1.5954,2.8702,0.3817,0,0,0
-0.1548,-0.0146,1.0012,-0.3969,1.0992,0.3969,0,0,0
-0.1465,-0.0107,0.9885,-0.8092,-1.2061,-0.2672,0,0,0
-0.144,-0.0159,0.9954,-2.1756,-2.8702,-1.0687,0,0,0
-0.1438,-0.0181,1.0164,-2.7252,-3.0382,-1.2824,0,0,0
-0.1479,-0.0254,1.0315,-1.9084,-1.1298,-0.4656,0,0,0
-0.1521,-0.0256,1.0239,-0.6641,0.4198,0.6794,0,0,0
-0.1487,-0.0168,1.0176,-0.6565,1.0916,1.5496,0,0,0
-0.1426,-0.0063,0.9949,-0.7786,-0.4656,0.9389,0,0,0
-0.1423,-0.0007,0.9968,-1.9237,-1.5878,-0.3588,0,0,0
-0.1433,-0.0029,1.0176,-2.6489,-2.0992,-0.9466,0,0,0
-0.145,-0.0154,1.0305,-2.7252,-1.2214,-0.458,0,0,0
-0.1538,-0.0139,1.0444,-1.6412,0.4962,0.145,0,0,0
-0.1467,-0.0139,1.0156,-0.9695,1.458,0.1527,0,0,0
-0.1455,-0.0112,1.0139,-1.8015,1.4504,-0.3511,0,0,0
-0.1509,-0.0085,1.0232,-2.8015,0.7023,-0.8779,0,0,0
-0.1536,-0.0134,1.0298,-2.4962,-0.1069,-1.0763,0,0,0
-0.1555,-0.0129,1.0347,-1.0916,-0.5267,-0.4809,0,0,0
-0.1519,-0.0168,1.02,-0.6641,-0.2595,0.2595,0,0,0
-0.146,-0.0093,1.0203,-0.9771,-0.1603,-0.0611,0,0,0
-0.1458,-0.0107,1.0044,-1.9389,0.2443,-0.6718,0,0,0
-0.1426,-0.0054,1.0,-2.0611,-0.0763,-1.0305,0,0,0
-0.1436,-0.0088,1.0054,-2.7786,0.1908,-1.4046,0,0,0
-0.1558,-0.01,1.0085,-3.2595,-0.626,-1.0687,0,0,0
-0.1553,-0.0176,1.0239,-3.6412,-0.687,-0.7405,0,0,0
-0.1536,-0.0249,1.0269,-2.9466,-0.2977,-0.0458,0,0,0
-0.1472,-0.0159,1.0334,-2.2901,0.4656,0.0076,0,0,0
-0.1445,-0.0168,1.0205,-2.1679,0.4122,-0.3893,0,0,0
-0.1436,-0.0149,1.019,-1.9466,-0.5954,-0.2366,0,0,0
-0.1443,-0.0154,1.0193,-2.145,-0.916,-0.7634,0,0,0
-0.1409,-0.0142,1.022,-2.2672,-0.7634,-1.0534,0,0,0
-0.1436,-0.0159,1.0281,-2.2748,-0.4885,-1.2519,0,0,0
-0.1433,-0.019,1.0251,-2.3282,0.5115,-1.2672,0,0,0
-0.1487,-0.019,1.0129,-1.9771,1.4427,-1.5038,0,0,0
-0.1533,-0.0146,1.0125,-1.9695,0.7863,-1.2901,0,0,0
-0.1538,-0.0203,1.0083,-1.4809,0.0,-1.0534,0,0,0
-0.1521,-0.0171,1.001,-1.6031,-0.9771,-0.8931,0,0,0
-0.1511,-0.0149,1.0039,-1.1985,-1.8244,-0.6107,0,0,0
-0.1511,-0.0168,1.0115,-0.9771,-1.6336,-0.6107,0,0,0
-0.1477,-0.0154,1.0159,-1.8931,-1.3893,-0.6183,0,0,0
-0.1497,-0.0178,1.0249,-2.3511,0.0611,-0.5649,0,0,0
-0.1436,-0.0183,1.0225,-2.5115,0.8779,-0.1679,0,0,0
-0.1472,-0.0156,1.0203,-3.145,0.7252,-0.0687,0,0,0
-0.1514,-0.0146,1.0254,-2.4885,0.5267,-0.3359,0,0,0
-0.1472,-0.0134,1.0232,-1.6947,-0.084,-0.4275,0,0,0
-0.1484,-0.0132,1.0122,-1.5115,-0.8321,-1.0916,0,0,0
-0.1445,-0.0203,1.0049,-1.7863,-1.4427,-1.2824,0,0,0
-0.1492,-0.0168,1.0164,-2.5802,-1.0534,-0.6031,0,0,0
-0.1477,-0.0203,1.022,-2.4885,-0.5191,-0.0382,0,0,0
-0.1428,-0.0176,1.0183,-1.6031,0.1908,0.771,0,0,0
-0.146,-0.01,1.0178,-1.0153,0.3969,0.8397,0,0,0
-0.1526,-0.0139,1.0056,-0.458,-0.313,0.6947,0,0,0
-0.1423,-0.0107,0.9819,1.4733,-1.9542,-0.4733,0,0,0
-0.1426,-0.0037,1.0115,-1.4198,-3.2443,-0.6718,0,0,0
-0.1418,-0.0151,1.0093,-2.2824,-2.3435,-1.1298,0,0,0
-0.1414,-0.012,1.0186,-2.7634,-0.8702,-0.9466,0,0,0
-0.1455,-0.0188,1.0332,-2.2977,0.2519,-0.9771,0,0,0
-0.1484,-0.0247,1.0649,-3.3969,3.9313,0.0763,0,0,0
-0.1567,-0.0164,1.0122,-2.3206,3.3817,-0.3969,0,0,0
-0.1582,-0.0229,1.0203,-2.4656,1.0458,-1.0611,0,0,0
-0.1663,-0.0151,1.0198,-3.1756,-0.9008,-1.9542,0,0,0
-0.1619,-0.0244,1.012,-1.916,-2.4122,-2.542,0,0,0
-0.1663,-0.0225,1.0144,-1.3893,-3.7557,-2.6412,0,0,0
-0.1575,-0.0195,1.0203,0.6412,-4.0305,-2.0763,0,0,0
-0.1599,-0.0134,1.0251,-0.0534,-2.4351,-1.1298,0,0,0
-0.1553,-0.0193,1.0129,-0.0305,-1.2977,-0.5725,0,0,0
-0.144,-0.0161,1.001,-1.0534,-0.9084,-0.1298,0,0,0
-0.1428,-0.011,1.0027,-1.7023,-1.0305,-0.3053,0,0,0
-0.1421,-0.0071,1.0122,-1.8092,-1.0076,-0.6718,0,0,0
-0.1392,-0.0068,1.0078,-2.1756,-1.5954,-0.9466,0,0,0
-0.1377,-0.0007,1.0195,-2.6947,-1.5191,-1.0,0,0,0
-0.136,-0.0046,1.0278,-3.2519,-0.2824,-1.084,0,0,0
-0.1389,-0.0151,1.0308,-2.7863,0.5649,-0.7023,0,0,0
-0.1426,-0.0149,1.0266,-2.145,1.2366,-0.542,0,0,0
-0.1416,-0.0186,1.02,-2.2672,1.4427,-0.7405,0,0,0
-0.1382,-0.0142,1.0081,-2.8855,0.9695,-1.8015,0,0,0
-0.144,-0.0232,1.0122,-3.6412,1.0458,-2.0992,0,0,0
-0.1492,-0.0264,1.0071,-3.2061,0.5115,-2.0763,0,0,0
-0.1584,-0.032,1.0293,-3.0076,0.8626,-1.9237,0,0,0
-0.1597,-0.0242,1.0151,-1.6718,0.5573,-1.5267,0,0,0
-0.1575,-0.0291,1.0176,-1.145,0.145,-0.8702,0,0,0
-0.1523,-0.0288,1.0054,-1.3588,0.0229,-0.6794,0,0,0
-0.1514,-0.0205,1.0059,-1.6565,-0.6641,-0.916,0,0,0
-0.1455,-0.0154,1.0151,-2.374,-1.0305,-1.1069,0,0,0
-0.1467,-0.0164,1.0208,-2.4733,-1.3053,-1.5649,0,0,0
-0.1472,-0.0176,1.0308,-1.8931,-1.1908,-1.8626,0,0,0
-0.1467,-0.0166,1.0249,-1.313,-1.7099,-1.8702,0,0,0
-0.1584,-0.0166,1.0186,-0.7405,-1.5954,-1.6183,0,0,0
-0.1506,-0.0156,1.0188,-0.7099,-1.0153,-1.3359,0,0,0
-0.1536,-0.0127,1.0046,-1.0153,-1.687,-1.4275,0,0,0
-0.1516,-0.01,1.0237,-2.1527,-1.7634,-1.6794,0,0,0
-0.1497,-0.0159,1.0176,-2.2519,-1.1221,-1.4504,0,0,0
-0.1467,-0.0117,1.0208,-1.8397,-0.7481,-1.2366,0,0,0
-0.1477,-0.0073,1.0244,-2.1069,-0.084,-1.5038,0,0,0
-0.1448,-0.0195,1.0129,-1.4504,0.1374,-1.5802,0,0,0
-0.1509,-0.0142,1.0156,-1.3053,-0.2214,-1.7939,0,0,0
-0.1519,-0.0188,1.0144,-1.8092,-0.2977,-1.4656,0,0,0
-0.1458,-0.0232,0.9956,-1.8702,-0.626,-0.5954,0,0,0
-0.1516,-0.0203,1.0051,-1.6641,-1.855,-0.5344,0,0,0
-0.1504,-0.0183,1.0051,-2.1145,-3.0153,-0.8244,0,0,0
-0.1428,-0.0242,1.0269,-2.542,-3.6641,-0.3511,0,0,0
-0.1394,-0.0156,1.0212,-0.9313,-1.5191,-0.0534,0,0,0
-0.1306,-0.0198,1.0142,0.1756,-1.0534,-0.5573,0,0,0
-0.1362,-0.0237,1.0266,-1.6336,-0.313,-0.687,0,0,0
-0.1428,-0.0273,1.019,-0.8092,0.0305,-1.6183,0,0,0
-0.1428,-0.0315,1.0254,-0.5878,0.0305,-1.626,0,0,0
-0.1455,-0.0256,1.0178,-0.6489,-0.2443,-0.9771,0,0,0
-0.1433,-0.0227,1.0242,0.0611,-0.8855,-0.5038,0,0,0
-0.1418,-0.0234,1.0117,0.6947,-1.4046,-0.6031,0,0,0
-0.1482,-0.0256,1.0139,1.7863,-1.6489,-0.1756,0,0,0
-0.1526,-0.0303,1.0217,1.8168,-1.5954,0.1527,0,0,0
-0.1516,-0.0229,0.9978,0.542,-1.8702,1.0916,0,0,0
-0.1506,-0.0229,1.012,-0.4504,-1.8779,2.458,0,0,0
-0.144,-0.012,1.0112,0.2748,-1.9847,3.3511,0,0,0
-0.1323,-0.0088,1.0071,-0.0992,-1.4504,3.2595,0,0,0
-0.1284,-0.0105,0.9985,-0.8626,-1.1374,3.1603,0,0,0
-0.1284,-0.0054,1.0015,-1.9389,-0.9924,2.9389,0,0,0
-0.1453,-0.0256,1.1128,-1.0534,0.8779,4.2595,0,0,0
-0.137,0.0093,0.9915,-2.7328,2.8168,2.4122,0,0,0
-0.1326,-0.0183,0.9919,-2.8779,1.6947,2.4198,0,0,0
-0.1501,-0.0098,1.0774,-0.0153,1.5725,3.3511,0,0,0
-0.1421,0.0002,1.0247,-2.0763,1.9847,1.2824,0,0,0
-0.1401,-0.0168,1.0005,-1.6107,-0.0992,0.7176,0,0,0
-0.1514,-0.0232,1.0557,1.2519,1.229,2.229,0,0,0
-0.1606,-0.0034,0.9858,-1.8931,-1.8168,3.0,0,0,0
-0.1501,-0.0247,1.0024,-4.6794,-6.1145,5.2977,0,0,0
-0.1389,-0.0085,1.0376,-4.9237,-5.8321,5.313,0,0,0
-0.1255,-0.0115,1.0535,-3.8855,-3.9237,4.5191,0,0,0
-0.1272,-0.0171,1.0596,-2.0,-0.7557,3.2977,0,0,0
-0.1421,-0.0254,1.0154,-2.2748,-0.1069,4.0916,0,0,0
-0.1912,-0.0498,1.0291,-4.4275,-1.0382,6.3053,0,0,0
-0.2383,-0.0806,1.0051,-7.1298,-3.1985,11.2977,0,0,0
-0.2974,-0.1458,0.9875,-15.3359,-8.7863,22.2519,0,0,0
-0.2773,-0.1843,0.9895,-18.7252,-11.8321,34.7099,0,0,0
-0.2168,-0.1294,1.0334,-14.0534,-10.916,47.9542,0,0,0
-0.1748,-0.0562,1.0388,-24.4504,-6.0305,56.7099,0,0,0
-0.1228,-0.0496,1.0046,-22.5191,-5.2443,59.6183,0,0,0
-0.0708,-0.0325,1.0432,-20.9389,-3.2214,56.2748,0,0,0
-0.0657,-0.0239,1.0498,-25.687,-0.9084,51.8397,0,0,0
-0.0681,-0.0249,1.0732,-21.9008,1.687,48.5573,0,0,0
-0.0833,-0.0225,1.0784,-15.1069,3.2595,46.687,0,0,0
-0.0801,-0.0425,1.0916,-13.0305,4.5267,45.7099,0,0,0
-0.115,-0.0361,1.0249,-9.0305,3.8168,43.7786,0,0,0
-0.1394,-0.0413,0.9514,-8.1221,-2.9771,42.2366,0,0,0
-0.1897,-0.0498,0.9224,-12.8473,-14.8321,45.4885,0,0,0
-0.1804,0.0686,1.002,-17.8397,-23.5038,49.0076,0,0,0
-0.1638,-0.1089,1.0115,-16.4351,-16.9237,57.4733,0,0,0
-0.1458,-0.0564,1.01,-18.4962,-13.3435,61.7557,0,0,0
-0.1421,-0.0708,0.9885,-19.3359,-7.0076,65.3206,0,0,0
-0.1123,-0.0461,0.9912,-17.9618,-2.6107,66.9847,0,0,0
-0.082,-0.0242,0.9976,-20.3282,-0.1603,64.9771,0,0,0
-0.0627,-0.0139,1.0271,-19.6031,1.1985,59.4046,0,0,0
-0.0688,-0.0181,1.0444,-17.2977,3.0305,51.5573,0,0,0
-0.0657,-0.012,1.02,-12.7557,2.6183,43.0611,0,0,0
-0.0691,-0.0051,1.0276,-9.3435,0.4427,35.2137,0,0,0
-0.0684,0.0073,1.0132,-6.7634,-2.3969,27.8092,0,0,0
-0.0808,0.0015,1.0198,-5.229,-5.7939,20.4122,0,0,0
-0.0989,-0.0059,1.0305,-3.374,-6.6107,14.4733,0,0,0
-0.1157,-0.0188,1.0188,-2.1374,-6.4962,9.8321,0,0,0
-0.1372,-0.0303,1.0132,-2.2672,-6.6336,8.3664,0,0,0
-0.1626,-0.0486,1.0234,-3.8015,-7.7099,9.5802,0,0,0
-0.1665,-0.0493,1.0215,-3.8321,-7.5038,11.9847,0,0,0
-0.1631,-0.0459,1.0298,-3.4046,-6.3664,14.855,0,0,0
-0.1548,-0.0564,1.0234,-3.2901,-4.0153,17.0534,0,0,0
-0.1396,-0.0359,1.0017,-2.5954,-3.1145,17.313,0,0,0
-0.1294,-0.0347,0.9905,-4.5725,-3.7099,16.4427,0,0,0
-0.125,-0.0266,1.0059,-5.7023,-5.0534,14.1756,0,0,0
-0.115,-0.0293,1.0193,-5.2366,-5.4046,11.8626,0,0,0
-0.1133,-0.0298,1.0327,-3.4427,-5.916,9.4198,0,0,0
-0.1091,-0.031,1.0254,-1.145,-5.8092,7.4733,0,0,0
-0.1118,-0.0286,1.011,0.229,-5.8397,4.7023,0,0,0
-0.1167,-0.0276,0.9949,-0.9771,-7.0076,2.0534,0,0,0
-0.1382,-0.0391,0.9866,-3.7481,-8.2824,0.916,0,0,0
-0.1531,-0.0554,1.001,-5.3206,-9.4046,2.4198,0,0,0
-0.158,-0.0674,1.0173,-6.1374,-8.687,5.9389,0,0,0
-0.1567,-0.0659,1.0354,-4.9771,-6.2977,9.5344,0,0,0
-0.1362,-0.0601,1.0352,-3.9847,-3.084,11.7252,0,0,0
-0.1221,-0.0442,1.0149,-3.4885,-1.8092,12.6412,0,0,0
-0.1118,-0.0361,1.0015,-4.3359,-1.9466,12.0534,0,0,0
-0.106,-0.0359,1.0286,-4.7634,-3.4046,10.5878,0,0,0
-0.0962,-0.0422,1.0444,-3.3817,-4.3893,8.1298,0,0,0
-0.0977,-0.0425,1.0542,-0.6183,-4.7405,5.8702,0,0,0
-0.0957,-0.0396,1.0291,0.1374,-5.1908,4.5038,0,0,0
-0.1018,-0.0559,1.0259,-0.9389,-6.2061,3.7634,0,0,0
-0.1218,-0.0586,1.0244,-2.7863,-6.0992,4.5649,0,0,0
-0.1169,-0.0598,1.0271,-3.2137,-5.7252,6.3969,0,0,0
-0.113,-0.0566,1.0322,-3.5191,-4.229,8.7023,0,0,0
-0.0996,-0.0503,1.0244,-4.8015,-2.2137,9.6336,0,0,0
-0.0925,-0.0496,1.0271,-5.5649,-2.4198,10.4427,0,0,0
-0.084,-0.0427,1.0374,-5.3282,-1.7252,9.4351,0,0,0
-0.0762,-0.0403,1.0354,-4.0992,-1.2977,7.3817,0,0,0
-0.084,-0.053,1.0366,-3.4046,-1.374,5.313,0,0,0
-0.0969,-0.0508,1.0059,-2.7481,-2.8015,5.0,0,0,0
-0.1042,-0.0527,0.9917,-3.2443,-5.084,5.2214,0,0,0
-0.094,-0.0508,1.0095,-4.7557,-6.2748,5.9618,0,0,0
-0.0864,-0.0525,1.0332,-5.2901,-4.8321,5.7557,0,0,0
-0.0867,-0.0483,1.0525,-4.4351,-2.7023,5.9618,0,0,0
-0.0774,-0.0491,1.0576,-2.2595,-0.3053,5.5954,0,0,0
-0.0833,-0.0457,1.0264,-0.3588,0.5344,3.542,0,0,0
-0.0771,-0.0493,1.0234,-0.7939,-0.9237,0.7786,0,0,0
-0.105,-0.0535,1.0215,-1.4656,-0.1985,-0.4122,0,0,0
-0.1194,-0.0605,1.0115,-0.6107,-0.5496,-0.4046,0,0,0
-0.1221,-0.072,1.0017,-0.8397,-1.3282,-0.1374,0,0,0
-0.1313,-0.0659,1.0059,-2.1756,-1.9084,1.145,0,0,0
-0.1213,-0.0657,1.0139,-3.2977,-1.0992,2.2595,0,0,0
-0.1194,-0.0615,1.0149,-4.145,0.2595,3.0611,0,0,0
-0.1147,-0.0627,1.0242,-3.5344,1.1374,3.5038,0,0,0
-0.116,-0.0659,1.02,-2.2824,2.229,3.4275,0,0,0
-0.1169,-0.0618,1.0178,-0.3359,1.3969,3.8931,0,0,0
-0.116,-0.0564,1.0039,0.3588,-0.4656,3.8626,0,0,0
-0.1086,-0.0544,1.0117,0.4656,-1.8244,3.3435,0,0,0
-0.0896,-0.0437,0.9993,0.8855,-3.0916,2.3359,0,0,0
-0.0808,-0.0308,1.0234,-0.3969,-2.5649,0.0611,0,0,0
-0.0745,-0.0325,1.0518,-1.6947,-0.1603,-1.9695,0,0,0
-0.0698,-0.0371,1.0452,-0.9084,2.9008,-4.2595,0,0,0
-0.0669,-0.03,1.0449,0.458,5.8397,-6.7023,0,0,0
-0.0586,-0.0203,1.0312,1.1603,7.1221,-10.374,0,0,0
-0.0598,-0.0176,1.0273,1.5725,6.8626,-15.0305,0,0,0
-0.0552,-0.0125,1.0288,2.3511,7.4809,-21.1832,0,0,0
-0.0625,-0.0139,1.0234,4.0305,7.1832,-26.0382,0,0,0
-0.0825,-0.0159,1.0237,4.7481,7.0153,-29.0382,0,0,0
-0.0818,-0.02,1.0161,4.771,6.1679,-33.2824,0,0,0
-0.0874,-0.0264,1.021,4.8473,6.4962,-35.8168,0,0,0
-0.1067,-0.0444,1.0269,4.1603,6.9466,-37.1603,0,0,0
-0.1238,-0.0413,1.0403,3.6412,7.9084,-36.5725,0,0,0
-0.1416,-0.0505,1.022,2.8092,8.0,-34.1069,0,0,0
-0.1665,-0.0659,1.0054,2.4885,7.1832,-30.1832,0,0,0
-0.1753,-0.061,0.999,2.0076,5.2977,-25.8931,0,0,0
-0.1833,-0.0732,1.0037,0.8168,3.3817,-21.2214,0,0,0
-0.178,-0.0742,1.0107,-0.374,2.8321,-16.9389,0,0,0
-0.1804,-0.0762,1.0144,-0.6412,2.3969,-12.1603,0,0,0
-0.1736,-0.0759,1.0107,0.3664,0.7863,-8.4198,0,0,0
-0.1636,-0.071,1.0129,0.8626,-0.4504,-5.7023,0,0,0
-0.1562,-0.062,1.0095,0.5191,-1.2672,-3.4198,0,0,0
-0.1404,-0.0618,1.0239,0.855,-1.5038,-1.6183,0,0,0
-0.1208,-0.0503,1.0203,0.916,-0.5725,-0.8931,0,0,0
-0.1184,-0.0466,1.0247,0.7863,0.4046,-0.313,0,0,0
-0.1162,-0.0354,1.0305,0.7634,2.0153,-0.1221,0,0,0
-0.0974,-0.0327,1.0173,1.2443,3.1069,-0.5878,0,0,0
-0.0881,-0.0186,1.0129,0.8931,2.9924,-3.4962,0,0,0
-0.0793,-0.0105,1.0073,0.7405,1.5496,-7.1069,0,0,0
-0.0769,-0.009,1.0168,0.4733,0.458,-10.3511,0,0,0
-0.0854,-0.0122,1.0286,1.7481,-1.2214,-12.2137,0,0,0
-0.084,-0.0164,1.0486,2.7328,-1.084,-14.084,0,0,0
-0.0808,-0.0139,1.0364,4.8321,-0.4809,-16.374,0,0,0
-0.0771,-0.0061,1.0339,5.7481,0.1298,-18.5573,0,0,0
-0.0833,-0.0063,1.0364,4.6336,1.5267,-21.374,0,0,0
-0.0837,-0.0139,1.0461,3.4122,3.2748,-23.5344,0,0,0
-0.093,-0.0112,1.0552,3.2672,6.3435,-24.8473,0,0,0
-0.0957,-0.0156,1.0564,3.9924,9.6031,-26.0687,0,0,0
-0.0952,-0.0056,1.0227,4.374,11.0611,-27.5649,0,0,0
-0.1047,-0.0142,1.0156,3.7252,11.145,-29.4046,0,0,0
-0.1062,-0.0159,1.009,2.3435,11.2366,-30.855,0,0,0
-0.1211,-0.0232,1.0198,1.5344,10.5878,-32.2977,0,0,0
-0.1299,-0.0303,1.0271,2.1298,10.1298,-33.0687,0,0,0
-0.1489,-0.0315,1.0256,3.4198,9.8626,-32.7099,0,0,0
-0.1448,-0.0422,1.0081,4.1679,8.6031,-31.8931,0,0,0
-0.1487,-0.0369,1.0015,2.8473,7.3893,-31.5802,0,0,0
-0.1567,-0.0334,1.0105,0.2595,8.4885,-30.4198,0,0,0
-0.1555,-0.0391,0.9976,0.7252,8.9237,-28.9924,0,0,0
-0.1646,-0.0444,0.9978,-0.916,9.2977,-27.3588,0,0,0
-0.1584,-0.0483,1.0012,-1.6794,8.9542,-25.4427,0,0,0
-0.1628,-0.052,1.0125,-1.0458,8.2214,-24.145,0,0,0
-0.1628,-0.0474,1.0095,-0.0382,7.3359,-23.4046,0,0,0
-0.1641,-0.0525,1.0212,-0.7252,6.8244,-22.3511,0,0,0
-0.1641,-0.0566,1.0227,-0.542,6.687,-21.313,0,0,0
-0.1636,-0.0623,1.0237,0.0229,7.0076,-20.0611,0,0,0
-0.1667,-0.0684,1.0249,0.4351,6.1832,-18.2443,0,0,0
-0.1733,-0.0571,1.0288,-0.5878,5.7099,-16.8855,0,0,0
-0.175,-0.064,1.031,-1.6794,5.1908,-15.374,0,0,0
-0.1709,-0.063,1.0212,-1.2366,3.7634,-13.9237,0,0,0
-0.1658,-0.0557,1.0144,-1.5115,2.374,-12.855,0,0,0
-0.1631,-0.0515,1.0432,-1.8015,2.3359,-12.6412,0,0,0
-0.1575,-0.0574,1.0493,-0.8855,3.4427,-11.8779,0,0,0
-0.1582,-0.0544,1.0322,1.9084,4.2977,-11.1221,0,0,0
-0.1562,-0.0513,1.0251,2.9084,4.7786,-10.8626,0,0,0
-0.1643,-0.0498,1.0012,1.8015,3.8092,-10.6641,0,0,0
-0.167,-0.0527,1.0007,-0.1603,2.5573,-10.0534,0,0,0
-0.1653,-0.051,1.0024,-1.6107,2.9924,-9.1069,0,0,0
-0.1685,-0.0508,1.0029,-2.8931,2.8855,-7.542,0,0,0
-0.1628,-0.0508,1.0103,-4.5191,3.3817,-6.4046,0,0,0
-0.1587,-0.0518,1.0071,-4.8321,3.8092,-5.8168,0,0,0
-0.1589,-0.0405,1.0078,-4.7557,3.7557,-6.0916,0,0,0
-0.1531,-0.0454,1.0027,-4.1832,4.313,-6.0916,0,0,0
-0.1592,-0.0481,0.9939,-3.2061,3.6641,-6.0763,0,0,0
-0.1545,-0.0483,0.9934,-3.1985,3.0382,-6.7405,0,0,0
-0.1506,-0.0488,0.9868,-3.2824,2.229,-7.4198,0,0,0
-0.1572,-0.052,1.0005,-4.2901,1.6947,-7.6641,0,0,0
-0.1619,-0.0586,1.0002,-4.4885,2.3893,-7.3893,0,0,0
-0.1667,-0.0579,0.9956,-4.855,2.0153,-6.374,0,0,0
-0.1729,-0.0542,0.9929,-5.2214,1.8321,-4.9313,0,0,0
-0.1682,-0.0557,0.9966,-5.7252,2.4122,-3.7405,0,0,0
-0.1697,-0.0576,1.0056,-5.6183,2.5573,-2.0763,0,0,0
-0.1624,-0.0542,1.012,-5.0229,2.5344,-1.0458,0,0,0
-0.1606,-0.0508,1.021,-3.7786,2.8092,-1.374,0,0,0
-0.1509,-0.0532,1.0088,-2.5725,1.8855,-1.9466,0,0,0
-0.1521,-0.0439,0.9971,-1.3435,-0.3435,-3.8702,0,0,0
-0.1555,-0.0483,1.0125,-1.2519,-1.6031,-5.5038,0,0,0
-0.1597,-0.051,1.0188,-1.8779,-1.7328,-6.1298,0,0,0
-0.1685,-0.0481,1.0254,-1.3664,-0.5573,-5.6718,0,0,0
-0.1721,-0.0598,1.0215,-2.374,0.9924,-4.5649,0,0,0
-0.1675,-0.0601,1.033,-3.2824,2.1985,-3.8015,0,0,0
-0.1655,-0.0527,1.0317,-2.7634,3.0992,-4.0916,0,0,0
-0.168,-0.0554,1.0183,-2.7634,2.8397,-4.5038,0,0,0
-0.1682,-0.1055,1.1018,-4.6412,3.3359,-2.7099,0,0,0
-0.1987,-0.0642,1.0022,-9.4962,5.5878,-2.374,0,0,0
-0.189,-0.0784,0.9961,-8.6412,2.3664,-3.1756,0,0,0
-0.1926,-0.0881,1.0432,-4.9771,1.4885,-1.6031,0,0,0
-0.1904,-0.0859,1.0498,-0.7557,3.2977,-1.4656,0,0,0
-0.1775,-0.0532,1.0312,5.7786,4.145,-1.626,0,0,0
-0.1733,-0.0576,1.0259,1.6794,0.687,-1.1756,0,0,0
-0.1802,-0.0544,0.9399,2.4962,-2.9771,-1.8702,0,0,0
-0.1721,-0.0571,1.0049,-2.0611,-3.5725,-2.4198,0,0,0
-0.1682,-0.0586,1.0127,-0.8168,-3.3893,-2.5725,0,0,0
-0.1633,-0.061,1.0188,-1.3664,-1.4733,-2.7023,0,0,0
-0.1665,-0.0579,1.002,-0.5649,0.9466,-2.3282,0,0,0
-0.1621,-0.0513,0.9883,-3.2748,1.4198,-2.5725,0,0,0
-0.1636,-0.0632,0.9802,-2.1985,2.4656,-2.916,0,0,0
-0.1724,-0.0657,0.9849,-2.2595,1.6947,-1.9008,0,0,0
-0.1763,-0.0667,0.9917,-2.0611,2.0534,-1.5496,0,0,0
-0.1675,-0.0637,1.0063,-2.4962,1.9924,-0.771,0,0,0
-0.1702,-0.0601,1.0002,-3.2824,2.0534,-0.458,0,0,0
-0.1709,-0.0642,0.9917,-3.4275,2.0,0.4198,0,0,0
-0.1711,-0.0627,1.0017,-5.2595,1.5115,0.8931,0,0,0
-0.1594,-0.0903,1.1077,2.3969,7.6412,1.4046,0,0,0
-0.1772,-0.0229,1.0022,1.0992,5.0916,0.2748,0,0,0
-0.1802,-0.0447,0.9883,-3.9695,0.6489,-1.0534,0,0,0
-0.1946,-0.0569,0.9573,-3.855,-4.1985,-0.855,0,0,0
-0.1812,-0.0625,1.0439,2.1145,-0.5267,-1.5725,0,0,0
-0.1848,-0.0474,1.0071,-0.1298,-1.8397,-1.2519,0,0,0
-0.1787,-0.0654,1.0083,-2.3053,-2.5344,0.3664,0,0,0
-0.1846,-0.0544,1.0642,-4.2672,-2.0076,0.5496,0,0,0
-0.1787,-0.0515,1.0317,-4.6718,-2.084,0.7328,0,0,0
-0.1667,-0.0669,1.0325,-3.9084,0.4122,0.5649,0,0,0
-0.1716,-0.0793,1.0505,-2.9618,2.3511,0.5344,0,0,0
-0.1677,-0.0698,1.0002,-1.4656,0.5191,-0.3664,0,0,0
-0.1694,-0.0762,1.0115,0.626,0.3588,-1.5115,0,0,0
-0.1755,-0.0667,1.0076,1.6031,-0.2061,-2.0,0,0,0
-0.1738,-0.0671,0.9866,2.1145,-0.3664,-1.8092,0,0,0
-0.1731,-0.0627,0.9805,2.229,0.4198,-1.6183,0,0,0
-0.1721,-0.0413,0.9497,-3.855,-2.8397,-1.8321,0,0,0
-0.1794,-0.0752,0.979,-6.4504,-3.4885,-0.8092,0,0,0
-0.1658,-0.0471,0.989,-10.5191,0.3053,-2.4733,0,0,0
-0.1787,-0.0801,1.0051,-6.3282,-0.1145,-0.5496,0,0,0
-0.1772,-0.0718,0.9963,-4.7252,2.0305,-0.1069,0,0,0
-0.1912,-0.0486,0.9995,-4.626,-0.4504,0.1679,0,0,0
-0.2024,-0.0823,1.0222,-4.7939,-1.9847,1.0916,0,0,0
-0.2075,-0.0896,1.0293,-2.7481,-3.3511,2.8702,0,0,0
-0.1843,-0.0823,0.9902,-3.2748,-4.8473,3.374,0,0,0
-0.1755,-0.0544,1.0154,-0.9542,-5.687,4.6718,0,0,0
-0.1733,-0.0596,1.0388,-3.626,-3.2824,4.7252,0,0,0
-0.1675,-0.0571,1.04,-2.2214,-1.626,5.8168,0,0,0
-0.1562,-0.063,1.0403,-2.6794,1.5878,5.7023,0,0,0
-0.1589,-0.0415,1.0095,-0.8168,1.6947,4.8168,0,0,0
-0.1526,-0.0447,1.0076,-0.8397,0.9313,3.5344,0,0,0
-0.1584,-0.0339,1.0024,-1.0916,-1.3359,1.7863,0,0,0
-0.1614,-0.0461,1.0132,0.4656,-2.0,0.6794,0,0,0
-0.1609,-0.0435,1.0105,-0.4122,-1.2137,0.4275,0,0,0
-0.1738,-0.0452,1.0027,-0.6031,-1.3053,0.2137,0,0,0
-0.1682,-0.0374,0.9995,-1.8779,-0.7481,0.2595,0,0,0
-0.1799,-0.053,1.0371,0.2672,-0.4275,1.1908,0,0,0
-0.1697,-0.0439,1.0181,-2.7099,-0.0611,0.4351,0,0,0
-0.1719,-0.0366,1.009,-4.1069,0.0687,-0.2672,0,0,0
-0.1731,-0.0645,1.0173,0.374,-0.8015,-0.4809,0,0,0
-0.175,-0.0518,1.0339,-0.5725,-1.1069,-0.7405,0,0,0
-0.1753,-0.0605,1.0249,-0.1985,-0.9008,-0.4275,0,0,0
-0.1682,-0.0544,1.0095,0.0305,-0.6336,-0.8473,0,0,0
-0.175,-0.0549,1.0146,-0.3893,0.458,-1.4122,0,0,0
-0.1821,-0.0537,1.0205,-0.1069,0.6336,-1.6565,0,0,0
-0.1812,-0.0576,1.0144,-0.7252,0.6565,-1.5267,0,0,0
-0.1833,-0.0635,1.0166,-0.626,0.8626,-0.4504,0,0,0
-0.1877,-0.0605,1.0151,-4.1908,1.0763,0.9084,0,0,0
-0.187,-0.074,0.9714,-4.374,-0.2366,1.145,0,0,0
-0.1782,-0.0496,0.9963,-5.9237,0.2137,1.084,0,0,0
-0.1721,-0.0701,1.0022,-4.4122,-0.5649,1.7863,0,0,0
-0.1733,-0.0637,1.0198,-1.5878,-1.4733,2.0763,0,0,0
-0.1667,-0.0576,1.0269,-1.3359,-1.5954,1.0534,0,0,0
-0.1577,-0.0537,1.0312,-0.4962,0.0916,0.3969,0,0,0
-0.1614,-0.0515,1.0203,-0.4198,1.1221,0.2137,0,0,0
-0.1665,-0.0515,1.0151,-1.1756,1.771,0.1679,0,0,0
-0.1667,-0.0544,1.0095,-2.4656,1.6718,-0.1145,0,0,0
-0.1648,-0.054,1.0005,-2.9313,1.3969,-1.1221,0,0,0
-0.1665,-0.0527,1.0093,-4.0458,1.2977,-1.6641,0,0,0
-0.1792,-0.0789,1.0273,-3.4733,0.4962,-1.0763,0,0,0
-0.186,-0.0667,1.0376,-0.9847,0.6641,-0.6336,0,0,0
-0.1711,-0.0591,1.0095,-1.3664,1.1374,-0.1145,0,0,0
-0.1755,-0.0559,1.0012,-1.0916,1.0382,-0.9924,0,0,0
-0.1814,-0.0566,1.011,-0.8092,0.4122,-1.2595,0,0,0
-0.1799,-0.0576,0.9983,-0.8626,0.5649,-1.5725,0,0,0
-0.1765,-0.0591,0.9951,-1.6336,0.0534,-1.1145,0,0,0
-0.1829,-0.0518,1.0134,-2.3969,-0.5191,-1.1145,0,0,0
-0.1809,-0.0571,1.0098,-2.8092,-0.5573,-1.313,0,0,0
-0.1785,-0.0571,1.0195,-4.0458,-0.6336,-0.8397,0,0,0
-0.1807,-0.0588,1.0166,-4.0687,-0.4656,-0.8244,0,0,0
-0.179,-0.062,1.0161,-3.5267,-0.4733,-0.8397,0,0,0
-0.1853,-0.0693,1.0239,-1.4275,-0.5344,-0.542,0,0,0
-0.1707,-0.0659,1.0217,-2.3817,1.4656,-0.1221,0,0,0
-0.1768,-0.0703,1.0042,-0.8321,2.1756,0.4885,0,0,0
-0.1777,-0.0669,1.0098,-0.4351,2.1756,0.2748,0,0,0
-0.1726,-0.063,1.0098,-0.4885,1.2443,0.0305,0,0,0
-0.179,-0.0571,0.9861,-3.0916,1.0153,0.0153,0,0,0
-0.1853,-0.0703,0.9956,-1.2137,-1.3511,-0.229,0,0,0
-0.1758,-0.0581,0.9912,-2.6031,-1.0534,-0.8321,0,0,0
-0.1855,-0.0608,1.0044,-4.6947,-0.313,-0.6336,0,0,0
-0.1843,-0.0627,1.0071,-4.5191,-0.0305,-0.0763,0,0,0
-0.188,-0.0686,1.0215,-4.3282,0.4351,0.084,0,0,0
-0.1855,-0.0718,1.0122,-4.5573,-0.1908,0.1679,0,0,0
-0.1821,-0.0674,1.0059,-3.8015,-0.0153,-0.2901,0,0,0
-0.1831,-0.0623,1.0088,-4.3435,0.0,-0.2443,0,0,0
-0.1875,-0.0723,1.0107,-4.2366,-0.8702,0.626,0,0,0
-0.1868,-0.0625,1.0295,-4.1756,-1.0305,1.5725,0,0,0
-0.1821,-0.0657,1.0215,-4.3664,-0.0611,2.0382,0,0,0
-0.1738,-0.0652,1.0308,-2.8244,0.2137,2.9008,0,0,0
-0.1663,-0.0547,1.0254,-4.084,1.2672,2.2748,0,0,0
-0.1604,-0.0552,1.0186,-2.5115,0.8397,1.3359,0,0,0
-0.1614,-0.0508,1.0181,-2.1756,0.313,0.2824,0,0,0
-0.1675,-0.0557,1.0239,-0.8397,0.1527,-0.5725,0,0,0
-0.1633,-0.0447,1.011,-0.2214,0.7863,-1.3664,0,0,0
-0.1755,-0.0605,1.0139,-0.3969,1.3969,-1.5649,0,0,0
-0.1736,-0.0623,1.0007,-0.542,2.458,-1.0305,0,0,0
-0.1794,-0.0623,0.9868,-1.0916,2.1832,-0.3893,0,0,0
-0.1804,-0.0669,0.9932,-1.9313,1.8244,-0.2366,0,0,0
-0.1804,-0.0659,0.99,-1.6565,1.1679,-0.5878,0,0,0
-0.188,-0.0676,0.9976,-2.3206,0.3588,-0.5267,0,0,0
-0.1853,-0.075,1.0027,-2.1221,-0.1527,-0.4962,0,0,0
-0.1846,-0.0781,0.9998,-1.3664,0.0153,-0.2061,0,0,0
-0.188,-0.075,1.002,-1.3969,-0.4046,0.145,0,0,0
-0.1917,-0.0784,1.0005,-1.9695,-1.1603,0.7481,0,0,0
-0.1865,-0.075,1.0142,-1.2748,-0.7328,0.6947,0,0,0
-0.1882,-0.0703,1.02,-1.8244,-1.0382,1.5725,0,0,0
-0.1755,-0.0566,0.9949,-2.8244,-0.1221,0.8244,0,0,0
-0.1868,-0.0723,1.0017,-2.1145,0.2824,1.0916,0,0,0
-0.1904,-0.0808,1.0159,-2.3435,-0.1603,1.8092,0,0,0
-0.1924,-0.0737,1.0032,-2.9466,-1.8702,1.5344,0,0,0
-0.1885,-0.0676,1.0049,-2.5573,-2.8779,1.229,0,0,0
-0.1848,-0.075,1.0312,0.4122,-2.0076,2.1527,0,0,0
-0.1809,-0.0691,1.0261,-1.3359,-0.3817,2.6183,0,0,0
-0.1863,-0.0808,1.0054,-1.2748,-0.5191,2.9466,0,0,0
-0.1858,-0.0723,1.0129,-2.0611,-0.7939,2.7634,0,0,0
-0.1938,-0.0703,1.0205,-3.9084,-1.5878,2.5267,0,0,0
-0.1921,-0.075,1.0225,-3.7863,-1.0763,2.5191,0,0,0
-0.1843,-0.0696,1.0242,-2.7176,-0.8855,3.626,0,0,0
-0.1836,-0.0732,1.0266,-2.3893,-0.0916,3.8321,0,0,0
-0.1821,-0.062,1.0303,-1.2824,0.9237,3.2977,0,0,0
-0.1748,-0.0598,1.0198,-0.5802,1.0687,3.2748,0,0,0
-0.179,-0.0652,1.0034,1.5878,-0.626,2.3053,0,0,0
-0.1787,-0.064,0.9958,1.4962,-1.6412,0.313,0,0,0
-0.1829,-0.072,0.9849,1.5649,-1.6183,0.4046,0,0,0
-0.1899,-0.0779,0.98,1.8168,-2.2901,1.9695,0,0,0
-0.1814,-0.0742,0.9753,0.4427,-2.9695,3.3206,0,0,0
-0.1816,-0.0688,0.9812,-0.3511,-3.6641,4.6489,0,0,0
-0.1729,-0.0645,0.9888,-0.6641,-3.8244,4.9008,0,0,0
-0.165,-0.0586,1.0037,-0.9771,-4.0763,5.1985,0,0,0
-0.1609,-0.0708,1.011,-1.4351,-4.084,5.4427,0,0,0
-0.1682,-0.0645,1.0154,-0.7176,-3.3206,4.6947,0,0,0
-0.1714,-0.0684,1.0159,2.0916,-4.4046,4.6641,0,0,0
-0.1562,-0.0552,1.0115,3.2672,-3.855,2.542,0,0,0
-0.179,-0.0547,0.9871,3.6565,-6.626,2.5115,0,0,0
-0.177,-0.0605,1.0264,3.8168,-6.6641,2.2137,0,0,0
-0.1785,-0.0623,1.0173,3.3511,-5.4122,3.0458,0,0,0
-0.1816,-0.061,1.0432,1.9084,-3.2672,4.7481,0,0,0
-0.1775,-0.0642,1.0354,2.1908,-1.8702,5.2137,0,0,0
-0.1736,-0.0581,1.0303,2.2748,-1.3053,4.229,0,0,0
-0.176,-0.0542,1.0122,2.374,-2.9924,2.9618,0,0,0
-0.1807,-0.0481,1.0178,2.8321,-3.6031,1.2901,0,0,0
-0.1848,-0.0522,1.0217,3.1756,-3.8779,0.5038,0,0,0
-0.1865,-0.0481,1.0171,2.5038,-3.2595,1.3053,0,0,0
-0.1943,-0.0342,1.0071,1.2061,-3.1527,1.3206,0,0,0
-0.1812,-0.0354,1.0188,0.6031,-2.4122,1.5878,0,0,0
-0.1826,-0.0295,1.0105,-0.9313,-2.4733,1.9389,0,0,0
-0.1885,-0.0247,1.012,-2.6641,-2.0992,1.5649,0,0,0
-0.1846,-0.0366,1.0117,-2.8702,-1.3359,2.2519,0,0,0
-0.1868,-0.0305,1.0205,-2.4733,-1.374,2.3511,0,0,0
-0.1831,-0.0242,1.0122,-3.5802,-1.0687,2.5115,0,0,0
-0.1733,-0.0383,1.019,-2.7634,-1.4885,2.8168,0,0,0
-0.1692,-0.0244,1.0283,-2.8702,-2.0382,2.4198,0,0,0
-0.1643,-0.0251,1.0278,-2.0382,-1.2214,1.542,0,0,0
-0.1592,-0.0273,1.0247,-0.855,-0.1069,0.9924,0,0,0
-0.1592,-0.0283,1.0173,-0.6641,0.5954,0.4809,0,0,0
-0.1663,-0.0256,1.0159,-0.8702,-0.0458,0.084,0,0,0
-0.165,-0.0291,1.0088,0.8931,-0.6107,0.7786,0,0,0
-0.1567,-0.0251,1.0046,0.7786,-0.084,0.0611,0,0,0
-0.1653,-0.0249,1.0037,0.0534,-0.7023,0.374,0,0,0
-0.1648,-0.0222,1.01,-0.8931,0.6183,0.084,0,0,0
-0.1584,-0.0332,1.012,-1.0763,0.4351,0.5649,0,0,0
-0.1523,-0.0313,1.0176,-1.458,0.2824,0.0611,0,0,0
-0.1453,-0.0369,1.0234,-1.3435,1.6565,-0.9618,0,0,0
-0.1479,-0.0347,1.0195,-2.0382,1.7328,-1.9466,0,0,0
-0.158,-0.03,1.0127,-3.3511,1.9542,-3.771,0,0,0
-0.1577,-0.0361,1.0247,-3.5038,2.542,-4.3435,0,0,0
-0.1682,-0.0447,1.0244,-3.5802,3.542,-3.4198,0,0,0
-0.1704,-0.041,1.0166,-2.7786,4.2137,-2.687,0,0,0
-0.1741,-0.0447,1.0063,-1.7176,3.9084,-2.2366,0,0,0
-0.1768,-0.0376,0.9946,-0.626,2.229,-2.9924,0,0,0
-0.1738,-0.0332,0.9937,-0.2061,-0.0382,-4.0992,0,0,0
-0.1824,-0.0425,1.0015,-0.374,-1.2061,-4.7023,0,0,0
-0.1826,-0.0425,1.0095,0.0153,-0.6794,-4.9924,0,0,0
-0.1934,-0.0503,0.9934,-0.0611,-0.4046,-3.5725,0,0,0
-0.1936,-0.0427,0.9963,-1.0153,-0.7099,-2.7176,0,0,0
-0.196,-0.0391,0.9824,-0.1985,-1.3588,-1.5878,0,0,0
-0.1963,-0.0391,0.9998,0.7786,-2.374,-1.1832,0,0,0
-0.1882,-0.0386,1.0042,0.6947,-4.0687,0.3435,0,0,0
-0.1895,-0.0396,1.0161,1.4885,-4.6794,1.5802,0,0,0
-0.1672,-0.0352,1.0247,2.0229,-3.2061,2.1298,0,0,0
-0.1638,-0.0327,1.02,1.4275,-2.7405,2.1908,0,0,0
-0.1575,-0.0303,1.0269,1.1374,-1.5267,1.8015,0,0,0
-0.1562,-0.0425,1.0413,0.9695,-0.9237,1.5878,0,0,0
-0.1587,-0.0313,1.0281,0.6794,-0.0687,0.7634,0,0,0
