ax,ay,az,gx,gy,gz,left_click,right_click
0.1108,0.0652,0.9922,20.5573,-9.9847,5.4427,0,0,0
0.1013,0.0823,0.9844,17.6031,-6.458,3.4275,0,0,0
0.1243,0.0586,0.969,16.3511,-3.8015,2.8626,0,0,0
-0.0703,-0.0869,1.0464,0.0076,5.229,9.1527,0,0,0
0.0032,-0.0354,1.0066,-0.5954,10.9924,5.7557,0,0,0
-0.0764,-0.0776,1.0098,-2.9466,8.1756,7.8702,0,0,0
-0.0283,-0.075,1.0464,1.3053,8.5878,10.4962,0,0,0
-0.0308,-0.071,1.0342,0.5878,9.6412,10.2748,0,0,0
-0.0286,-0.0793,1.0425,0.7252,10.3435,11.1985,0,0,0
-0.0042,-0.0356,0.9993,-1.687,11.0687,8.5115,0,0,0
-0.0398,-0.0583,1.032,-2.3969,9.3053,6.1679,0,0,0
-0.0149,-0.0354,1.0183,-1.1832,6.0076,4.2748,0,0,0
-0.0188,-0.0581,1.0081,-2.0611,0.5802,0.3435,0,0,0
-0.019,-0.0637,1.0154,-2.6641,-2.7481,-3.2901,0,0,0
-0.054,-0.0801,1.05,-3.3435,-4.8168,-4.4275,0,0,0
-0.02,-0.074,1.05,-0.9008,-7.7099,-6.1221,0,0,0
-0.043,-0.0713,1.0266,-2.1527,-8.3817,-5.1908,0,0,0
-0.0613,-0.052,1.0405,1.2137,-11.8779,-4.8855,0,0,0
-0.0315,-0.0569,1.0361,4.542,-17.1603,-6.2519,0,0,0
-0.0334,-0.0391,1.0051,3.7634,-15.3435,-5.8931,0,0,0
0.0042,-0.0361,1.0193,2.8015,-9.4351,-6.0916,0,0,0
-0.0122,-0.073,1.0264,3.2824,-9.4351,-5.542,0,0,0
0.0142,0.0398,1.0144,1.313,-12.0305,-7.9008,0,0,0
-0.0779,-0.0413,0.981,-2.9008,-10.7176,-8.7328,0,0,0
-0.0073,-0.0371,1.0005,-9.3969,-3.2901,-8.8321,0,0,0
-0.0095,-0.0745,1.0244,-10.1298,1.4885,-5.626,0,0,0
-0.0352,-0.0732,1.03,-8.6794,4.6336,-3.0458,0,0,0
-0.0396,-0.083,1.0247,-6.313,3.7557,-2.3664,0,0,0
-0.0364,-0.0759,1.0239,-4.4046,0.3206,-3.7023,0,0,0
-0.0469,-0.0835,1.0171,-2.145,-4.1908,-3.1756,0,0,0
-0.0215,-0.0696,1.043,-0.5191,-5.6412,-2.5344,0,0,0
-0.0156,-0.0771,1.0413,-0.7023,-3.0305,-2.0153,0,0,0
-0.01,-0.0759,1.03,0.0,-0.4198,-0.9084,0,0,0
-0.0083,-0.0647,1.0208,-0.5725,1.7023,-0.4809,0,0,0
-0.0127,-0.0557,1.009,-2.1221,0.6718,-0.7481,0,0,0
-0.0024,-0.05,1.0229,-4.2443,-0.4122,-2.2977,0,0,0
-0.0154,-0.0642,1.0271,-4.7176,-0.9847,-3.2214,0,0,0
-0.0232,-0.075,1.0518,-3.8626,-0.6794,-3.2137,0,0,0
-0.0359,-0.0911,1.0544,-2.3359,0.1145,-2.1221,0,0,0
-0.0381,-0.0913,1.0447,-0.5802,0.8168,-0.855,0,0,0
-0.0344,-0.0742,1.033,0.2061,0.7099,0.9084,0,0,0
-0.0156,-0.0718,1.0261,0.0992,0.8092,0.3817,0,0,0
-0.0164,-0.0676,1.0269,-0.8321,1.2595,-0.7863,0,0,0
-0.0217,-0.0759,1.0244,-1.687,0.9695,-0.5191,0,0,0
-0.0256,-0.0774,1.0347,-2.8626,0.9847,-0.4504,0,0,0
-0.0188,-0.0908,1.0361,-3.3206,1.1603,-1.1603,0,0,0
-0.0459,-0.0964,1.0396,-2.1527,-0.2137,-0.5267,0,0,0
-0.031,-0.0913,1.0427,-0.7328,-2.145,0.7863,0,0,0
-0.0112,-0.0857,1.0498,0.6794,-2.5954,0.229,0,0,0
-0.0066,-0.0964,1.0425,2.9389,-2.0992,-0.3893,0,0,0
-0.0037,-0.0647,1.0217,2.6336,-0.3053,-0.4809,0,0,0
-0.0383,-0.0801,0.9958,0.5115,-1.2519,-0.4962,0,0,0
-0.0298,-0.063,1.02,-2.4885,-4.0382,-0.5115,0,0,0
0.0005,-0.0833,1.0474,-3.458,-1.3664,-1.9847,0,0,0
-0.0244,-0.0864,1.0359,-2.4275,1.7634,-0.5267,0,0,0
0.0925,-0.0178,1.0588,-3.5725,12.4351,-4.916,0,0,0
-0.0081,-0.0378,0.9929,-8.8092,22.4809,-3.9313,0,0,0
-0.0063,-0.0542,0.9937,-10.4656,28.0153,2.0916,0,0,0
0.0415,-0.0259,1.0,-14.2748,37.374,-0.7252,0,0,0
0.0034,-0.0391,0.9995,-19.7405,55.3206,0.9313,0,0,0
-0.0066,-0.0352,1.0305,-24.8397,67.4198,0.8702,0,0,0
-0.0308,-0.0461,1.0586,-27.9771,80.4809,-1.6412,0,0,0
-0.0549,-0.1047,1.0696,-24.687,92.1756,2.145,0,0,0
-0.1267,-0.1199,1.0249,-19.542,100.4733,7.4809,0,0,0
-0.2002,-0.1147,0.989,-17.5954,90.5267,7.7176,0,0,0
-0.2502,-0.1077,0.9648,-16.6718,67.2214,4.7863,0,0,0
-0.2378,-0.1331,0.9937,-11.8015,40.5344,4.8397,0,0,0
-0.2078,-0.1233,1.0312,-4.7023,19.9771,3.4046,0,0,0
-0.1741,-0.1145,1.0442,1.0916,4.5725,0.1603,0,0,0
-0.1733,-0.1013,1.0288,4.313,-7.0229,-2.3817,0,0,0
-0.1921,-0.1064,0.9966,6.0611,-20.5344,-4.3969,0,0,0
-0.1973,-0.1125,0.9758,8.2748,-31.3664,-5.0,0,0,0
-0.1907,-0.1099,0.969,10.0229,-40.1069,-3.687,0,0,0
-0.177,-0.1057,0.9717,8.9695,-50.3511,-3.7634,0,0,0
-0.1753,-0.126,1.0088,12.3817,-65.7405,-3.4656,0,0,0
-0.1301,-0.1167,1.0398,19.1069,-76.4122,-5.1145,0,0,0
-0.0852,-0.0864,1.0417,22.3511,-82.7328,-8.3817,0,0,0
-0.0754,-0.0923,1.0276,25.1908,-88.6412,-11.1527,0,0,0
-0.0452,-0.0974,1.0156,28.2214,-89.2061,-13.6183,0,0,0
-0.0046,-0.0696,1.0076,26.9847,-84.458,-12.5496,0,0,0
0.0359,-0.0283,1.0002,22.3053,-64.5115,-9.0,0,0,0
0.0413,-0.0337,0.9866,12.9466,-40.7557,-4.8931,0,0,0
0.0188,-0.0247,0.9648,2.4885,-22.5725,-2.2214,0,0,0
-0.0125,-0.0464,0.9724,-4.9771,-15.4275,0.3969,0,0,0
0.0015,-0.0549,1.0144,-8.542,-13.1145,-0.2061,0,0,0
0.0061,-0.0657,1.0557,-7.9237,-11.8626,-0.7481,0,0,0
-0.0017,-0.075,1.0767,-4.3053,-9.6183,-1.4809,0,0,0
-0.0083,-0.0818,1.0688,0.1069,-10.2824,-0.3435,0,0,0
0.0012,-0.0706,1.0586,3.084,-10.0076,0.4122,0,0,0
0.0054,-0.0588,1.0388,2.5802,-11.9771,1.1374,0,0,0
0.0146,-0.05,1.0361,0.4885,-13.8702,-0.7328,0,0,0
0.0007,-0.0564,1.0374,0.4275,-17.8092,-3.1679,0,0,0
0.0032,-0.0596,1.0413,1.3511,-21.8015,-4.6489,0,0,0
0.0168,-0.0559,1.0449,3.5725,-23.855,-4.7023,0,0,0
0.0198,-0.052,1.0391,4.9542,-23.771,-4.9924,0,0,0
0.0142,-0.0364,1.0352,3.7481,-22.5802,-4.3588,0,0,0
0.0081,-0.0535,1.0317,1.4046,-23.0458,-2.7863,0,0,0
0.0317,-0.0591,1.0356,2.5115,-22.8473,-2.5649,0,0,0
0.0444,-0.052,1.0371,1.7328,-20.542,-1.2137,0,0,0
0.0774,-0.0371,1.0386,0.0382,-11.9618,-0.6183,0,0,0
0.0645,-0.0359,1.0327,-1.8244,-0.1985,1.4733,0,0,0
0.0393,-0.0432,1.0115,-4.6947,7.1145,3.6489,0,0,0
0.0393,-0.0444,1.0029,-8.3282,10.8397,4.4275,0,0,0
0.0278,-0.0469,1.0051,-10.3282,11.3893,4.6031,0,0,0
0.0249,-0.0564,1.0217,-11.1679,9.3206,3.2137,0,0,0
0.0352,-0.0637,1.0332,-9.8931,8.2443,2.2901,0,0,0
0.0369,-0.0632,1.0449,-8.229,8.9313,3.3511,0,0,0
0.0276,-0.0579,1.0251,-7.3817,9.687,3.7405,0,0,0
0.0237,-0.0566,1.0142,-8.0382,7.8702,3.2595,0,0,0
0.0229,-0.0608,1.0132,-8.084,6.3206,1.4656,0,0,0
0.0115,-0.072,1.0107,-7.8855,4.3511,0.5496,0,0,0
0.0271,-0.0657,1.0247,-7.542,2.6412,0.0382,0,0,0
0.0342,-0.0725,1.0469,-6.5954,3.8168,1.2977,0,0,0
0.0322,-0.0742,1.0522,-5.6336,6.0305,2.1679,0,0,0
0.02,-0.0698,1.0325,-4.2595,6.5496,2.6947,0,0,0
0.0269,-0.0649,1.0203,-3.3893,3.9771,1.8321,0,0,0
0.032,-0.061,1.0232,-3.855,3.1298,0.7176,0,0,0
0.0286,-0.0522,1.0232,-4.9389,3.1603,0.0382,0,0,0
0.0105,-0.0725,1.021,-5.0076,4.4046,-0.1679,0,0,0
-0.0059,-0.0835,1.0063,-5.7176,4.0153,0.3511,0,0,0
-0.001,-0.0776,1.0171,-4.2977,3.5954,1.626,0,0,0
0.0017,-0.0752,1.0142,-3.9618,3.5878,2.0382,0,0,0
0.0183,-0.0691,1.0081,-4.3282,3.7481,1.7176,0,0,0
0.0146,-0.0703,1.012,-4.9389,2.5496,0.7634,0,0,0
0.0142,-0.0742,1.0225,-5.7939,1.1756,-0.5878,0,0,0
0.0044,-0.0896,1.0251,-4.8473,1.4733,-0.6107,0,0,0
-0.0056,-0.0884,1.0273,-3.6412,2.1527,0.2366,0,0,0
0.0071,-0.0784,1.0264,-2.8015,3.6718,1.542,0,0,0
0.0122,-0.0725,1.0195,-3.2214,5.1756,1.4809,0,0,0
0.0083,-0.0691,1.0168,-4.2443,6.1985,1.7786,0,0,0
0.0032,-0.0796,1.0134,-5.6489,5.3053,1.3969,0,0,0
-0.0061,-0.0874,1.0222,-5.313,2.626,0.9542,0,0,0
0.0012,-0.0896,1.0386,-4.3969,-0.5649,0.8855,0,0,0
0.002,-0.0886,1.0474,-2.3664,-2.4656,0.2061,0,0,0
0.0039,-0.0845,1.041,0.0687,-3.8168,-0.0763,0,0,0
0.002,-0.0784,1.0259,1.7176,-3.6641,-0.0382,0,0,0
0.0244,-0.0742,1.0186,1.3893,-2.7099,-0.3588,0,0,0
0.0203,-0.0623,1.0151,-1.145,-0.1374,0.0763,0,0,0
0.0139,-0.0679,1.0127,-3.6031,1.9008,0.229,0,0,0
0.009,-0.0745,1.0166,-5.7481,2.7863,0.6107,0,0,0
0.0042,-0.0793,1.0315,-6.1527,2.6565,0.6183,0,0,0
-0.0012,-0.0835,1.0354,-5.084,1.8779,0.6565,0,0,0
-0.0039,-0.0815,1.0466,-3.0382,0.3817,0.6336,0,0,0
0.0032,-0.0857,1.042,-1.0458,-1.0382,-0.0687,0,0,0
0.0127,-0.0784,1.0452,-0.6107,-1.6107,-0.5802,0,0,0
0.0044,-0.0781,1.0344,-0.1374,-0.2901,-0.0076,0,0,0
0.0005,-0.0706,1.0212,0.1527,2.3359,0.5802,0,0,0
-0.0015,-0.0774,1.0083,-1.2137,2.7786,1.4962,0,0,0
0.0024,-0.0706,1.0129,-2.7252,2.5573,1.1221,0,0,0
-0.0005,-0.0684,1.0061,-4.5725,2.5115,0.1832,0,0,0
-0.0012,-0.0796,1.0251,-5.6107,2.1756,0.4962,0,0,0
-0.0024,-0.0808,1.0327,-4.855,3.7328,0.8702,0,0,0
0.0093,-0.0815,1.0391,-4.458,3.855,1.6641,0,0,0
0.0078,-0.0745,1.0354,-3.0153,3.6641,1.3969,0,0,0
0.0032,-0.0752,1.0205,-2.3282,2.4656,0.5802,0,0,0
-0.0032,-0.0833,1.0215,-2.1069,0.0687,-0.2366,0,0,0
0.0034,-0.0793,1.0259,-2.3817,-1.5649,-0.2137,0,0,0
0.0198,-0.0718,1.0266,-2.1832,-0.6107,-0.5496,0,0,0
0.0073,-0.0769,1.0278,-2.3817,1.0611,-0.4733,0,0,0
0.0085,-0.084,1.0298,-2.2061,1.5191,-0.3511,0,0,0
0.0022,-0.0818,1.0234,-1.5878,1.7481,-1.0458,0,0,0
-0.0032,-0.082,1.0161,-1.4351,1.2519,-0.9771,0,0,0
-0.0081,-0.0813,1.0085,-2.1756,1.6489,-0.2824,0,0,0
-0.0088,-0.0859,1.0071,-3.1679,1.8244,-0.0153,0,0,0
-0.0127,-0.0876,1.0063,-3.9542,1.6107,0.3969,0,0,0
-0.0161,-0.0879,1.0232,-4.6718,1.4046,0.9771,0,0,0
-0.0054,-0.0942,1.041,-5.0916,0.6794,1.2519,0,0,0
-0.0024,-0.0935,1.0557,-3.1527,1.8321,1.5573,0,0,0
-0.0002,-0.0945,1.0454,-1.771,2.542,2.6489,0,0,0
0.0029,-0.0879,1.0361,-1.6718,2.8092,3.7481,0,0,0
-0.0103,-0.0859,1.0166,-3.4656,2.542,4.5115,0,0,0
0.0,-0.0789,1.02,-6.9466,2.8473,5.9466,0,0,0
0.0115,-0.084,1.0352,-10.9847,7.6489,8.5038,0,0,0
0.0171,-0.075,1.0435,-15.3511,14.0076,12.9466,0,0,0
-0.0269,-0.0889,1.0093,-19.4427,18.8244,18.4427,0,0,0
-0.1125,-0.1184,0.9412,-23.0229,13.6794,27.771,0,0,0
-0.1543,-0.1196,0.9109,-29.9237,4.3359,40.0153,0,0,0
-0.0859,-0.0977,0.9404,-44.3969,0.0534,46.3969,0,0,0
-0.03,-0.1123,1.0381,-55.4046,3.0611,46.5649,0,0,0
0.0093,-0.1558,1.1318,-53.4427,6.3435,46.1985,0,0,0
-0.0034,-0.1748,1.1533,-42.4733,7.084,46.1374,0,0,0
0.0061,-0.1733,1.1335,-30.084,5.5725,43.3664,0,0,0
0.0244,-0.1367,1.0937,-22.2214,1.4427,37.2443,0,0,0
-0.0139,-0.1353,1.0273,-17.2519,-5.5038,29.8168,0,0,0
-0.0591,-0.1375,0.9546,-15.2748,-14.6718,27.1756,0,0,0
-0.1145,-0.1543,0.9043,-17.3435,-25.542,31.5802,0,0,0
-0.0713,-0.1475,0.9189,-24.6031,-31.5725,33.855,0,0,0
-0.0083,-0.1365,0.9949,-29.3893,-27.7023,32.916,0,0,0
0.0146,-0.1606,1.0454,-27.5802,-16.7328,30.0611,0,0,0
-0.0283,-0.1782,1.0205,-23.3969,-13.3511,31.2824,0,0,0
0.012,-0.176,1.0398,-20.2443,-12.8473,29.6947,0,0,0
0.0352,-0.1672,1.0447,-16.7634,-12.7939,25.0992,0,0,0
0.031,-0.175,1.0415,-13.9695,-12.7939,22.0534,0,0,0
0.0059,-0.1858,1.0154,-11.6565,-13.9389,20.1298,0,0,0
0.0081,-0.1748,1.0212,-10.8092,-17.7557,17.4427,0,0,0
-0.02,-0.1877,1.0127,-8.5344,-18.374,15.3817,0,0,0
-0.0828,-0.1917,0.9536,-8.0382,-20.6641,20.5954,0,0,0
-0.0601,-0.1704,0.9539,-11.6718,-21.9847,26.3053,0,0,0
0.0337,-0.1565,1.0151,-15.2214,-17.1832,23.6947,0,0,0
0.0637,-0.1838,1.0496,-15.9466,-9.2595,19.229,0,0,0
0.0479,-0.2002,1.063,-13.0916,-3.3893,17.8779,0,0,0
0.0693,-0.1963,1.0681,-8.4427,1.0763,15.6947,0,0,0
0.0554,-0.1846,1.0598,-5.1985,6.8473,13.9389,0,0,0
0.0547,-0.1797,1.0366,-1.916,9.1374,10.5038,0,0,0
0.0469,-0.1768,1.0078,0.0763,9.0305,7.0611,0,0,0
0.04,-0.1711,1.0007,-0.0076,10.4885,5.3053,0,0,0
0.0364,-0.1692,0.9985,-2.4198,12.1527,2.5267,0,0,0
0.0125,-0.1797,0.9915,-2.6947,13.1985,0.0992,0,0,0
-0.0166,-0.1924,0.9827,-3.4504,14.2366,1.1527,0,0,0
-0.0203,-0.187,1.0005,-3.7405,15.0153,0.8397,0,0,0
-0.0198,-0.1816,0.9932,-3.6412,15.2748,-0.8855,0,0,0
-0.0122,-0.1851,0.9998,-2.2443,13.5725,-2.7481,0,0,0
0.001,-0.1831,1.0176,-0.7557,12.6947,-5.8779,0,0,0
0.0037,-0.1814,1.0171,-0.0763,11.1679,-10.3969,0,0,0
0.0068,-0.1985,1.0408,0.9542,9.7023,-14.4122,0,0,0
0.0283,-0.187,1.0569,5.1527,12.8855,-18.4885,0,0,0
-0.0347,-0.1826,1.0166,8.1069,12.9466,-20.6947,0,0,0
-0.0071,-0.1814,1.0134,11.2366,14.2366,-22.9389,0,0,0
-0.0593,-0.1655,0.969,12.5725,15.8626,-24.4504,0,0,0
-0.0552,-0.1697,0.9678,11.1756,14.8626,-25.0153,0,0,0
-0.0801,-0.1704,0.9592,10.3664,12.7405,-25.4733,0,0,0
-0.1091,-0.1973,0.9358,8.4122,7.7328,-23.7328,0,0,0
-0.1062,-0.2004,0.9614,4.3435,4.2977,-17.5191,0,0,0
-0.0938,-0.1936,0.9905,0.771,1.6794,-12.7176,0,0,0
-0.0437,-0.1926,1.0342,-0.7786,1.7481,-10.7939,0,0,0
-0.0342,-0.1882,1.0449,1.6412,3.2672,-10.3893,0,0,0
-0.0083,-0.1741,1.0525,5.1374,5.0611,-13.6489,0,0,0
0.0122,-0.1582,1.0691,7.9313,8.5267,-17.9466,0,0,0
-0.0022,-0.1709,1.0588,11.6565,11.687,-19.9847,0,0,0
-0.0281,-0.1736,1.0278,14.2672,11.7252,-21.0305,0,0,0
-0.0415,-0.1541,1.011,16.8244,9.9542,-23.7328,0,0,0
-0.0371,-0.1426,0.9963,17.0458,9.7252,-28.7481,0,0,0
-0.0144,-0.1604,1.0237,16.9237,12.4198,-31.2366,0,0,0
-0.0208,-0.1562,1.0405,18.3664,16.4427,-32.0916,0,0,0
-0.0413,-0.1597,1.0354,20.5802,16.4809,-33.6947,0,0,0
-0.0647,-0.1667,1.0225,23.1221,13.1908,-35.5267,0,0,0
-0.0728,-0.1628,1.0068,26.229,8.1374,-37.2595,0,0,0
-0.0596,-0.1562,0.9915,28.458,5.0611,-37.6336,0,0,0
-0.0251,-0.136,0.9954,28.2748,6.4122,-38.7557,0,0,0
0.0139,-0.1062,1.0117,26.1832,16.0,-40.0916,0,0,0
0.0173,-0.0776,1.0374,23.2137,27.5878,-44.771,0,0,0
-0.021,-0.1169,1.063,21.0611,35.3969,-47.9542,0,0,0
-0.1128,-0.1375,1.0486,23.7634,33.1298,-48.2595,0,0,0
-0.1558,-0.1582,1.0332,27.0229,29.6718,-45.0229,0,0,0
-0.1692,-0.1746,1.009,28.8931,22.2977,-35.7557,0,0,0
-0.1709,-0.1357,0.979,27.3893,14.0305,-27.6107,0,0,0
-0.1086,-0.1047,0.9636,21.9389,5.9084,-26.2519,0,0,0
-0.0679,-0.0837,0.9824,15.5115,5.2901,-22.2366,0,0,0
-0.0166,-0.0583,1.0244,10.5496,7.4351,-23.0458,0,0,0
-0.0107,-0.0632,1.0427,8.8473,15.0382,-26.9008,0,0,0
-0.0928,-0.0876,1.0295,9.4809,18.4885,-28.9389,0,0,0
-0.0906,-0.0947,1.0459,12.0153,17.7863,-32.9847,0,0,0
-0.092,-0.0935,1.0579,15.2214,17.1374,-33.3359,0,0,0
-0.1023,-0.0886,1.0752,16.0992,18.3206,-31.0458,0,0,0
-0.123,-0.104,1.0403,17.9084,18.0458,-26.1298,0,0,0
-0.1245,-0.0847,1.0117,18.7939,16.2443,-24.2672,0,0,0
-0.0972,-0.0662,1.0034,17.7786,14.9237,-24.3282,0,0,0
-0.0667,-0.0566,0.9873,15.6107,15.9313,-24.5725,0,0,0
-0.0771,-0.042,0.9912,12.4656,20.7786,-22.5191,0,0,0
-0.0933,-0.0327,0.9822,8.1374,21.6183,-26.3435,0,0,0
-0.0911,-0.0325,1.0044,4.4504,24.9084,-26.3969,0,0,0
-0.1277,-0.0637,0.9858,3.3359,25.8931,-25.4504,0,0,0
-0.1313,-0.0562,1.0027,2.7023,22.7786,-26.0458,0,0,0
-0.1545,-0.0725,1.0056,1.5725,21.6489,-22.4733,0,0,0
-0.1636,-0.114,1.0876,5.9618,27.1756,-21.2366,0,0,0
-0.1833,-0.1167,1.1021,14.4504,31.7863,-19.855,0,0,0
-0.158,-0.0698,1.0269,16.0458,29.6718,-14.6107,0,0,0
-0.1304,-0.033,1.0115,10.9771,25.7481,-20.6107,0,0,0
-0.1719,-0.0688,1.0037,7.1985,24.145,-21.1221,0,0,0
-0.1765,-0.0718,1.0247,7.4198,25.3664,-22.4656,0,0,0
-0.1921,-0.0815,1.0239,9.0458,23.229,-18.6336,0,0,0
-0.1609,-0.0513,1.0063,9.6794,20.0687,-14.6947,0,0,0
-0.1482,-0.0325,1.0022,7.8168,20.5344,-14.4885,0,0,0
-0.2041,-0.051,0.9785,4.4275,18.3435,-14.4198,0,0,0
-0.1787,-0.0571,0.9985,2.6489,16.3893,-14.4733,0,0,0
-0.1787,-0.0466,1.009,3.7328,16.4427,-15.4885,0,0,0
-0.1965,-0.0586,1.0012,4.5649,15.5191,-15.5802,0,0,0
-0.2017,-0.0654,0.9897,5.0763,13.6565,-14.2977,0,0,0
-0.2148,-0.0493,1.0156,6.6489,11.7939,-14.0534,0,0,0
-0.1978,-0.0591,1.0073,6.145,10.313,-13.2366,0,0,0
-0.1851,-0.0571,1.0247,7.1908,10.5954,-13.7023,0,0,0
-0.2136,-0.0417,1.0037,6.7023,10.0229,-13.9847,0,0,0
-0.1384,-0.0374,1.0142,7.6107,13.542,-15.4504,0,0,0
-0.1489,-0.0229,1.0442,9.6794,21.1298,-17.1756,0,0,0
-0.2156,-0.0464,1.0232,12.0305,19.2748,-14.7634,0,0,0
-0.2168,-0.0378,0.9978,11.3664,16.4198,-14.0763,0,0,0
-0.2114,-0.0308,1.0007,12.3817,17.2595,-16.6641,0,0,0
-0.2573,-0.0442,0.9563,9.5496,14.4275,-14.7252,0,0,0
-0.2317,-0.0266,0.9717,5.1527,11.687,-14.2214,0,0,0
-0.2095,-0.0576,1.0146,4.7023,9.7557,-12.8244,0,0,0
-0.1704,-0.0291,1.0393,6.5344,15.7023,-14.0763,0,0,0
-0.2034,-0.0181,1.0266,6.4275,18.7405,-16.3817,0,0,0
-0.2119,-0.0227,1.0247,5.5267,20.084,-16.1832,0,0,0
-0.2617,-0.0642,1.0356,11.5496,18.5649,-13.9618,0,0,0
-0.2566,-0.0266,0.9817,14.1298,15.1374,-14.8321,0,0,0
-0.2173,0.0024,0.9854,17.3969,12.0076,-17.5496,0,0,0
-0.2668,0.002,0.9495,14.8855,11.8168,-19.2061,0,0,0
-0.2634,-0.0227,0.9875,10.7405,8.9618,-18.4962,0,0,0
-0.2485,-0.0173,0.9922,8.9847,7.6794,-18.0,0,0,0
-0.2561,-0.0129,0.9919,8.3969,6.6107,-15.0229,0,0,0
-0.2439,-0.0415,1.0308,9.7939,7.0763,-14.3817,0,0,0
-0.2366,-0.0168,1.0269,12.1756,9.145,-14.5878,0,0,0
-0.2166,-0.0029,1.0188,13.5725,10.2901,-15.9542,0,0,0
-0.2422,0.0122,0.9553,11.0992,12.7405,-17.5114,0,0,0
-0.27,-0.0168,0.9915,7.2901,16.1298,-19.145,0,0,0
-0.2949,-0.0186,0.9697,5.2824,13.2137,-16.2519,0,0,0
-0.2942,-0.0435,1.0125,5.6718,9.5115,-13.4656,0,0,0
-0.2708,-0.0251,1.0498,11.4656,9.4198,-6.8779,0,0,0
-0.2251,0.0259,1.0093,13.5725,10.8626,-6.4122,0,0,0
-0.2148,0.0251,1.0151,14.2366,12.5038,-11.771,0,0,0
-0.2397,0.0122,0.9941,14.7557,15.5954,-14.229,0,0,0
-0.2375,0.0229,1.0103,17.0763,19.4733,-17.1908,0,0,0
-0.2661,0.0166,0.9939,17.3435,17.9313,-16.7328,0,0,0
-0.3105,-0.0115,0.967,18.4198,14.0076,-15.6412,0,0,0
-0.2761,-0.0071,0.9829,21.3435,5.5954,-12.7328,0,0,0
-0.2285,0.0649,0.9871,13.7634,11.2443,-17.3053,0,0,0
-0.3218,-0.0103,0.9595,2.7176,15.3588,-16.6183,0,0,0
-0.3552,-0.0305,0.9661,1.6641,12.1908,-13.7557,0,0,0
-0.3701,-0.0508,1.0032,7.2824,5.3893,-5.1832,0,0,0
-0.2881,0.0212,0.9778,9.0305,-0.0534,-2.1985,0,0,0
-0.29,0.021,0.9844,9.4504,-4.9924,-2.7786,0,0,0
-0.281,0.0381,0.9683,6.4809,-4.0687,-5.0305,0,0,0
-0.3108,0.0093,0.9248,-0.5267,-1.2061,-2.9237,0,0,0
-0.3157,-0.031,0.98,-2.6183,-3.8397,-1.6565,0,0,0
-0.312,-0.0002,0.9954,-4.0687,-6.5267,0.2748,0,0,0
-0.2783,-0.0098,0.9976,-3.8015,-6.2901,1.0382,0,0,0
-0.2695,0.0149,1.0112,-1.8473,-2.7786,-0.0534,0,0,0
-0.2813,0.0264,0.9836,-3.1527,-2.626,0.8626,0,0,0
-0.269,0.0244,0.9958,-4.5038,-2.9313,2.0305,0,0,0
-0.252,0.0283,1.009,-3.6794,-0.374,0.1832,0,0,0
-0.2737,0.0239,0.9812,-3.6947,1.3969,-0.2214,0,0,0
-0.2925,0.0063,0.9841,-2.4427,0.1832,-1.0611,0,0,0
-0.2949,0.021,0.9692,-2.2214,-0.771,-0.7328,0,0,0
-0.2996,0.0203,0.9634,-3.3588,-3.4275,1.2214,0,0,0
-0.2803,0.0198,0.9832,-3.3511,-4.1603,1.6947,0,0,0
-0.2634,0.0195,0.9844,-2.3359,-3.1756,1.5267,0,0,0
-0.2773,0.0315,0.9973,-3.626,-2.9847,2.1374,0,0,0
-0.2949,-0.0005,0.9749,-4.374,-4.2366,2.313,0,0,0
-0.3108,0.0012,0.9878,-3.6641,-5.6718,1.3359,0,0,0
-0.2898,0.0208,0.9868,-3.313,-7.0,1.4351,0,0,0
-0.2869,0.0291,0.9836,-4.5802,-8.3817,2.4656,0,0,0
-0.2896,0.0122,0.9756,-5.2672,-9.771,2.7939,0,0,0
-0.2986,0.0232,0.9551,-5.0916,-12.3359,3.8092,0,0,0
-0.2742,0.0229,0.9736,-5.4504,-14.7099,5.2519,0,0,0
-0.2705,0.0029,1.0125,-3.6031,-13.3969,2.2824,0,0,0
-0.2236,0.0183,1.0088,-3.3053,-10.3053,1.3359,0,0,0
-0.2017,0.0425,1.054,-1.8626,-2.9313,-1.7481,0,0,0
-0.2388,0.0337,1.0024,-2.145,1.6031,-3.3664,0,0,0
-0.272,0.0164,0.9773,-2.3817,1.9466,-3.4809,0,0,0
-0.2996,0.0161,0.9653,-3.6565,-1.5878,-2.0687,0,0,0
-0.2852,0.0039,0.9858,-5.5267,-4.8702,0.0076,0,0,0
-0.2788,0.0093,0.998,-5.5802,-4.8779,0.1374,0,0,0
-0.2795,0.021,0.9773,-6.5573,-6.3435,1.0153,0,0,0
-0.281,0.0049,0.9741,-8.5038,-10.3588,3.6489,0,0,0
-0.2876,-0.0054,0.9761,-8.855,-14.1985,6.084,0,0,0
-0.2859,0.0017,0.957,-9.7634,-24.2061,13.2824,0,0,0
-0.2749,0.0125,0.9656,-11.6107,-29.5191,18.2672,0,0,0
-0.2327,-0.0247,1.0205,-10.7405,-31.3206,16.5267,0,0,0
-0.1638,0.0122,1.0603,-5.4885,-21.4275,10.458,0,0,0
-0.1782,0.0366,1.0154,-6.2748,-16.1145,8.4504,0,0,0
-0.1531,0.031,1.0293,-5.8702,-10.2824,7.6489,0,0,0
-0.2029,0.0085,1.0247,-5.2901,-5.0,5.771,0,0,0
-0.2085,0.0037,1.0205,-4.6107,-2.3282,4.6794,0,0,0
-0.2227,-0.0032,1.0234,-4.2519,-0.1069,3.5725,0,0,0
-0.2107,-0.0073,0.9988,-4.1145,1.9695,2.2672,0,0,0
-0.2319,0.0266,0.9998,-4.8855,2.2519,2.9924,0,0,0
-0.2361,-0.0061,0.9888,-4.687,0.7405,3.4427,0,0,0
-0.2241,-0.0032,1.0134,-3.6489,1.2366,3.8779,0,0,0
-0.2241,-0.0061,1.0146,-4.4427,2.1527,4.2595,0,0,0
-0.2368,-0.0127,1.0044,-3.2214,3.4046,3.0,0,0,0
-0.2285,-0.0083,0.9912,-1.4809,4.0611,2.0229,0,0,0
-0.239,0.0073,0.9844,-0.6565,3.8626,1.9237,0,0,0
-0.2249,0.0137,0.9971,-1.9084,2.6412,2.6489,0,0,0
-0.2187,0.0044,1.0195,-1.6336,4.5878,1.9389,0,0,0
-0.2395,0.0076,1.0208,-2.2214,5.5878,0.5344,0,0,0
-0.2158,0.0132,1.0217,-2.6107,7.9313,0.084,0,0,0
-0.2141,0.0288,1.0137,-3.2519,10.7099,0.6718,0,0,0
-0.2271,0.0159,1.0051,-4.6183,11.5954,0.1679,0,0,0
-0.2537,0.0161,1.0005,-6.145,10.7023,0.5802,0,0,0
-0.2622,0.0,0.9866,-6.8168,7.8931,0.3053,0,0,0
-0.2671,0.0137,0.9863,-7.6412,5.8626,0.4962,0,0,0
-0.2336,0.0063,0.9861,-8.1145,4.7939,2.0458,0,0,0
-0.2307,-0.0017,1.0115,-8.5344,6.8626,0.8092,0,0,0
-0.2598,-0.0081,1.0134,-8.2519,8.8397,-0.3511,0,0,0
-0.2532,0.0073,0.9958,-9.6794,8.9847,0.3359,0,0,0
-0.2527,0.0181,0.9939,-11.3359,6.8473,1.3206,0,0,0
-0.2349,0.0112,0.9692,-15.0687,11.8015,0.2595,0,0,0
-0.2891,-0.0269,0.9912,-15.1908,9.5038,0.7176,0,0,0
-0.2556,-0.0034,0.9758,-12.3206,3.5267,1.771,0,0,0
-0.259,-0.0281,1.0139,-12.6641,1.8473,3.5038,0,0,0
-0.2844,-0.0298,0.9795,-11.2443,-1.9847,4.084,0,0,0
-0.2954,-0.0103,0.9658,-10.5191,-5.4885,4.8092,0,0,0
-0.2683,-0.0325,0.9658,-10.6031,-9.2672,5.7023,0,0,0
-0.2434,-0.0439,0.9673,-10.7557,-9.2366,6.4427,0,0,0
-0.1956,-0.0032,1.0115,-12.1679,-4.8626,5.1908,0,0,0
-0.251,-0.0464,1.071,-9.3817,-4.7481,4.3893,0,0,0
-0.2419,-0.0205,1.0049,-6.7481,-2.229,2.1679,0,0,0
-0.2361,-0.0293,0.9919,-5.0229,0.7481,1.0534,0,0,0
-0.2693,-0.031,0.9788,-4.313,-0.4122,2.8779,0,0,0
-0.2603,-0.032,0.9763,-6.4122,-2.9695,4.5344,0,0,0
-0.2456,-0.0359,1.0073,-4.8397,-1.145,4.5115,0,0,0
-0.2422,-0.0266,0.9817,-5.2901,0.0916,3.916,0,0,0
-0.2524,-0.0354,0.9968,-5.5649,-0.2672,5.1832,0,0,0
-0.2676,-0.0378,0.9854,-5.9389,-0.4427,4.9313,0,0,0
-0.2654,-0.0344,1.0005,-7.4275,-0.7023,5.2824,0,0,0
-0.2454,-0.0244,0.9919,-10.9924,0.8702,6.374,0,0,0
-0.2593,-0.0261,0.9788,-14.2366,3.8168,6.0992,0,0,0
-0.2351,-0.0374,1.019,-15.0382,7.8244,4.8397,0,0,0
-0.2104,-0.0173,0.9832,-15.4427,12.9389,6.5802,0,0,0
-0.2034,-0.0037,0.948,-19.5725,17.0305,5.2519,0,0,0
-0.2666,-0.0977,1.04,-16.229,16.8244,4.542,0,0,0
-0.2419,-0.0288,1.0215,-8.8397,14.2748,5.1374,0,0,0
-0.2637,-0.0342,1.0193,-8.3893,9.3206,2.7863,0,0,0
-0.28,-0.0454,1.0093,-6.4656,5.8244,1.3359,0,0,0
-0.2849,-0.051,0.9873,-6.8473,4.3588,0.5954,0,0,0
-0.2383,-0.0212,0.9961,-8.0,8.5344,0.1832,0,0,0
-0.2886,-0.0483,0.9683,-9.7099,10.0916,0.7557,0,0,0
-0.3027,-0.0437,0.9744,-10.7176,8.3435,2.9618,0,0,0
-0.2805,-0.0359,0.9216,-15.8397,9.2901,4.2366,0,0,0
-0.2512,-0.0056,0.8923,-23.3282,12.2595,2.4427,0,0,0
-0.239,-0.0103,0.894,-32.4046,11.3664,-4.0992,0,0,0
-0.1973,-0.0039,0.9346,-39.2595,12.9695,-11.6031,0,0,0
-0.4036,-0.3484,1.3665,-5.6412,2.6718,-4.2672,0,0,0
-0.311,-0.0452,0.9021,5.313,3.6794,3.5191,0,0,0
-0.2632,-0.0571,1.0378,-2.2061,4.5115,-1.4504,0,0,0
-0.3235,-0.0667,0.9275,-1.5725,2.8397,-0.8168,0,0,0
-0.3267,-0.0764,0.9651,-3.0916,-3.4275,0.2061,0,0,0
-0.2737,-0.0637,0.9712,-2.2901,-3.5878,-0.3511,0,0,0
-0.2625,-0.0657,0.9895,-0.7099,-1.1069,-0.0534,0,0,0
-0.2949,-0.0627,0.9695,-0.2443,-1.2519,-0.0611,0,0,0
-0.2795,-0.0579,0.9951,-2.2443,-2.3282,1.4046,0,0,0
-0.2947,-0.061,0.9766,-1.4504,-1.4885,0.5573,0,0,0
-0.2898,-0.0649,0.9644,-1.6107,-3.6947,0.2748,0,0,0
-0.283,-0.061,0.9951,-1.5344,-3.2595,0.1069,0,0,0
-0.2776,-0.0647,0.9966,-1.9847,-3.0687,0.0382,0,0,0
-0.2783,-0.0757,1.0005,-1.9847,-1.5496,-0.4351,0,0,0
-0.2827,-0.0647,0.999,-2.1298,-0.2748,-0.4351,0,0,0
-0.2998,-0.0706,0.9719,-2.5496,-0.9313,0.0229,0,0,0
-0.2896,-0.0813,0.959,-2.6107,-4.0916,1.4809,0,0,0
-0.2698,-0.0715,0.9878,-1.3588,-2.9466,1.6565,0,0,0
-0.2859,-0.0737,0.9785,-0.8931,-3.0763,1.6641,0,0,0
-0.2813,-0.0684,0.9707,-1.2519,-4.1069,2.8473,0,0,0
-0.2954,-0.0747,0.9827,-1.6107,-5.9237,3.9084,0,0,0
-0.3044,-0.0801,0.9937,-1.0305,-6.1374,2.3664,0,0,0
-0.2839,-0.0723,0.981,-1.3359,-7.3664,2.6183,0,0,0
-0.2795,-0.0569,0.9846,-1.9008,-7.5954,2.4962,0,0,0
-0.2727,-0.0576,0.9841,-2.7939,-8.0992,3.1756,0,0,0
-0.2727,-0.0464,0.9626,-6.6412,-6.7176,2.0076,0,0,0
-0.2734,-0.073,1.012,-4.229,-7.8779,3.8244,0,0,0
-0.2742,-0.0623,0.9841,-5.0,-8.7252,3.4962,0,0,0
-0.2219,-0.0493,1.0122,-6.542,-5.4809,3.8702,0,0,0
-0.2505,-0.0693,1.0332,-6.5038,-1.3053,2.9008,0,0,0
-0.2703,-0.0635,0.998,-6.8702,-0.2519,3.1908,0,0,0
-0.2766,-0.073,0.9858,-6.458,-0.1603,0.6107,0,0,0
-0.2832,-0.0698,0.9556,-7.2672,-0.4427,-0.7405,0,0,0
-0.2688,-0.0698,0.9734,-6.1832,-0.9618,0.3511,0,0,0
-0.2661,-0.0745,0.9875,-5.1221,-0.4809,0.5649,0,0,0
-0.2712,-0.0706,0.9878,-4.8702,-0.2824,1.0992,0,0,0
-0.282,-0.0793,0.9739,-6.1221,0.5038,0.3588,0,0,0
-0.29,-0.0803,0.9695,-5.2366,-0.6489,0.5344,0,0,0
-0.2659,-0.0684,0.9744,-5.0534,-0.8397,1.5496,0,0,0
-0.2791,-0.0742,0.9895,-4.8321,-1.8092,2.9389,0,0,0
-0.2593,-0.0789,0.9897,-6.3435,-0.7176,3.8473,0,0,0
-0.2686,-0.0735,0.9875,-6.8015,3.3511,4.7786,0,0,0
-0.2798,-0.0767,0.9778,-8.7786,4.8626,4.4656,0,0,0
-0.2656,-0.0869,0.9607,-11.3282,7.4962,5.3588,0,0,0
-0.2783,-0.0454,0.959,-14.3053,7.9389,4.7557,0,0,0
-0.2493,-0.0513,0.939,-17.8855,9.4046,4.0534,0,0,0
-0.2419,-0.0718,0.967,-19.7405,8.626,1.8168,0,0,0
-0.2649,-0.0635,0.9597,-21.2977,7.9237,0.6641,0,0,0
-0.2886,-0.1011,1.0156,-18.0992,8.4504,1.8321,0,0,0
-0.3074,-0.1008,0.9963,-14.2137,6.7252,4.9542,0,0,0
-0.2756,-0.0908,0.9902,-14.8702,2.1679,2.1908,0,0,0
-0.2776,-0.0996,1.009,-12.9313,0.0,0.1527,0,0,0
-0.2998,-0.1331,1.0574,-7.0305,-1.4504,1.4198,0,0,0
-0.2759,-0.0918,0.9956,-3.3969,-0.0916,2.3588,0,0,0
-0.2876,-0.114,0.9968,-3.7176,1.5191,1.4656,0,0,0
-0.2976,-0.1089,0.9646,-3.9313,0.458,1.2901,0,0,0
-0.3115,-0.106,0.9524,-3.4046,-1.9695,2.1832,0,0,0
-0.2773,-0.1021,0.98,-2.3282,-2.916,2.4046,0,0,0
-0.2786,-0.0916,0.9854,-2.145,-2.1985,2.3893,0,0,0
-0.2786,-0.0984,0.9702,-2.9008,-1.458,2.7023,0,0,0
-0.2795,-0.0867,0.9641,-5.9389,-1.1679,2.5725,0,0,0
-0.3035,-0.105,0.9648,-7.9771,-3.0305,3.2824,0,0,0
-0.3076,-0.103,0.9731,-8.5115,-5.3511,2.4122,0,0,0
-0.3003,-0.1155,0.9707,-8.3282,-7.8321,3.6565,0,0,0
-0.2578,-0.1028,0.988,-7.0,-4.626,4.3206,0,0,0
-0.2981,-0.0977,0.969,-8.1221,-1.2061,5.1069,0,0,0
-0.2852,-0.105,0.9641,-9.2977,-1.771,6.0229,0,0,0
-0.2808,-0.1008,0.9509,-11.4504,-2.8473,5.313,0,0,0
-0.2708,-0.1091,0.9861,-13.2519,-3.2901,5.7863,0,0,0
-0.2593,-0.114,0.999,-12.8092,-1.0992,6.3359,0,0,0
-0.2705,-0.1157,1.0098,-10.6412,1.9847,5.0076,0,0,0
-0.2759,-0.1179,1.0063,-8.8931,2.7328,2.2061,0,0,0
-0.2925,-0.1196,0.9951,-7.084,1.5802,2.1298,0,0,0
-0.2974,-0.1289,0.9944,-6.0229,-4.6947,1.1832,0,0,0
-0.272,-0.1169,1.0107,-3.3588,-5.7023,0.1069,0,0,0
-0.2998,-0.126,0.9792,-1.0382,-6.4504,0.7252,0,0,0
-0.2932,-0.1218,0.9648,0.145,-5.1527,3.5954,0,0,0
-0.301,-0.1035,0.9338,-1.3206,-5.1374,5.5344,0,0,0
-0.2832,-0.0974,0.9363,-5.8702,-7.0458,6.2901,0,0,0
-0.2625,-0.1125,0.9609,-10.2977,-7.2901,6.9313,0,0,0
-0.2703,-0.1072,0.9832,-13.0,-4.8015,5.4885,0,0,0
-0.2839,-0.1292,1.0017,-12.0992,-1.4427,3.8321,0,0,0
-0.2676,-0.123,1.0093,-7.7939,0.7863,2.855,0,0,0
-0.2693,-0.116,0.9998,-2.6565,0.0611,2.5878,0,0,0
-0.2456,-0.1082,0.9968,0.0458,-3.2443,1.5267,0,0,0
-0.2397,-0.0942,0.9875,0.3893,-3.8244,0.374,0,0,0
-0.2451,-0.0962,0.9827,-0.8855,-2.4733,-1.6183,0,0,0
-0.2871,-0.1167,0.9812,-1.5573,-1.0992,-2.0,0,0,0
-0.2783,-0.1199,0.9797,-2.3359,-1.855,-0.5115,0,0,0
-0.2893,-0.123,0.9739,-1.1145,-1.6641,-0.4046,0,0,0
-0.2683,-0.1111,0.9783,-0.4198,-1.7939,-0.1908,0,0,0
-0.2544,-0.1038,0.9639,-0.5038,-0.4885,-1.5878,0,0,0
-0.2764,-0.1025,0.9592,-2.9924,0.1603,-1.7023,0,0,0
-0.2749,-0.1089,0.9758,-5.0076,-1.8779,-2.2672,0,0,0
-0.2664,-0.1245,0.9998,-4.8855,-2.3511,-3.6336,0,0,0
-0.2639,-0.127,1.0166,-3.3588,0.1221,-3.8931,0,0,0
-0.2798,-0.1431,1.0154,-1.4351,1.7023,-2.2137,0,0,0
-0.3027,-0.136,0.9922,0.0229,1.5344,-0.3588,0,0,0
-0.2791,-0.1304,0.9797,0.626,1.626,0.3282,0,0,0
-0.2817,-0.113,0.9619,-0.1603,2.5573,-0.0611,0,0,0
-0.2854,-0.1125,0.9504,-3.1985,0.8092,-0.7099,0,0,0
-0.2642,-0.1189,0.9648,-5.0611,1.6107,-0.3359,0,0,0
-0.2803,-0.1206,0.9863,-5.9695,3.3435,0.0382,0,0,0
-0.2715,-0.123,1.0007,-5.3053,1.9695,-1.4962,0,0,0
-0.2678,-0.1218,1.009,-2.7939,3.3359,-2.1908,0,0,0
-0.2966,-0.1323,0.9998,-1.6718,2.084,-1.0611,0,0,0
-0.2725,-0.1306,0.9868,-0.7023,0.374,-0.1374,0,0,0
-0.2556,-0.1182,0.9883,-0.855,4.2977,0.2977,0,0,0
-0.2874,-0.1201,0.967,-3.0687,8.8931,0.1527,0,0,0
-0.3088,-0.1191,0.947,-4.9466,7.0687,1.2137,0,0,0
-0.2991,-0.1294,0.9607,-5.0382,3.0763,1.2214,0,0,0
-0.2717,-0.1223,0.9783,-4.145,1.5038,0.7328,0,0,0
-0.2756,-0.1223,0.9751,-3.4046,2.0534,0.2824,0,0,0
-0.2549,-0.1108,0.9749,-3.4122,4.6489,-0.8931,0,0,0
-0.2981,-0.1301,0.967,-3.4885,4.0229,-0.7939,0,0,0
-0.2688,-0.1157,0.9692,-2.8168,3.1221,-0.1679,0,0,0
-0.2922,-0.1191,0.9629,-2.3206,3.458,-0.8092,0,0,0
-0.2893,-0.1106,0.9668,-4.3053,2.2748,-0.7481,0,0,0
-0.2908,-0.127,0.981,-5.2443,1.1832,-0.8473,0,0,0
-0.2522,-0.1167,0.9927,-2.6107,3.2595,-0.2137,0,0,0
-0.2856,-0.1216,0.9729,-2.4122,5.8931,0.3511,0,0,0
-0.269,-0.113,0.9788,-3.7176,5.1908,-1.4733,0,0,0
-0.3081,-0.1169,0.96,-3.3282,4.3664,-2.7252,0,0,0
-0.3301,-0.1287,0.9551,-3.374,-2.3053,-2.4809,0,0,0
-0.2961,-0.1272,0.9773,-1.3969,-7.0382,-2.9542,0,0,0
-0.2727,-0.1328,0.988,0.4809,-6.8931,-2.916,0,0,0
-0.2898,-0.1243,0.9709,-0.084,-3.6107,-1.7634,0,0,0
-0.2993,-0.1353,0.9619,-1.4122,-3.1298,-1.1679,0,0,0
-0.2793,-0.1267,0.9851,-2.3893,-1.9695,0.2137,0,0,0
-0.2776,-0.1331,0.9788,-2.458,1.2137,0.6641,0,0,0
-0.2732,-0.125,0.9883,-2.0305,3.542,0.3282,0,0,0
-0.2859,-0.1201,0.9792,-2.1145,3.4656,-0.6947,0,0,0
-0.2778,-0.1155,0.9819,-3.3206,4.7023,-2.2366,0,0,0
-0.3171,-0.135,0.9666,-3.626,4.3817,-2.8397,0,0,0
-0.3171,-0.1438,0.9795,-3.0229,0.3282,-1.6947,0,0,0
-0.3164,-0.1301,0.9839,-1.7252,-1.1603,-0.9313,0,0,0
-0.2947,-0.1348,0.9773,-0.4427,-5.771,-0.2824,0,0,0
-0.2529,-0.1252,0.9834,1.5115,-4.2824,-0.8397,0,0,0
-0.2822,-0.1204,0.9634,-0.145,-0.7405,-1.084,0,0,0
-0.3,-0.127,0.9583,-3.2366,0.5573,0.0458,0,0,0
-0.2722,-0.1255,0.9915,-5.084,2.916,-0.5038,0,0,0
-0.2935,-0.1211,0.9919,-4.7786,6.9008,-1.1908,0,0,0
-0.2808,-0.1206,0.9973,-2.4962,7.458,0.6107,0,0,0
-0.293,-0.1125,0.9763,-1.7328,4.8855,-0.313,0,0,0
-0.2957,-0.1194,0.9656,-1.2214,2.2595,-1.6031,0,0,0
-0.3137,-0.124,0.9705,-2.7939,0.145,-2.0153,0,0,0
-0.2966,-0.1382,0.9873,-3.3817,0.8855,-1.5573,0,0,0
-0.302,-0.1421,0.9736,-1.8626,1.9771,-1.3435,0,0,0
-0.2939,-0.127,0.9656,-0.8244,3.2061,-0.4351,0,0,0
-0.28,-0.1201,0.9534,-1.5038,3.4275,-0.084,0,0,0
-0.2659,-0.1047,0.9744,-3.3206,8.5954,-1.5115,0,0,0
-0.3115,-0.1311,0.9546,-5.2519,8.1527,-2.1527,0,0,0
-0.3276,-0.1282,0.9553,-4.8015,3.2977,-1.5267,0,0,0
-0.3137,-0.1348,0.968,-3.1145,-0.5496,-1.3282,0,0,0
-0.2888,-0.1345,0.9902,-1.8473,-0.5649,-0.3435,0,0,0
-0.3005,-0.1216,0.9802,-1.1603,1.3282,-1.5344,0,0,0
-0.3125,-0.1248,0.9683,-2.2748,-1.8626,-3.0763,0,0,0
-0.3149,-0.1277,0.9705,-1.8779,-6.3893,-3.1374,0,0,0
-0.3071,-0.1382,0.9756,-1.145,-11.0763,-2.9695,0,0,0
-0.2798,-0.1377,1.0012,0.5802,-9.6107,-3.4351,0,0,0
-0.2729,-0.1506,0.9814,2.2901,-5.8931,-1.687,0,0,0
-0.2742,-0.1174,0.9731,1.5038,1.0305,-0.5496,0,0,0
-0.3035,-0.1218,0.9407,-1.0611,2.6718,-3.229,0,0,0
-0.311,-0.1318,0.9429,-3.0687,0.6947,-1.2366,0,0,0
-0.3022,-0.1221,0.9653,-4.0992,-0.4046,-0.6183,0,0,0
-0.2913,-0.1331,0.9954,-4.8321,-1.5649,-1.0458,0,0,0
-0.2966,-0.1333,1.0098,-2.8855,0.2443,-0.4962,0,0,0
-0.3235,-0.1399,0.9824,-0.2672,-1.7634,-1.3664,0,0,0
-0.2996,-0.1326,0.9817,0.7405,-4.3893,-1.1756,0,0,0
-0.2922,-0.126,0.9714,0.9618,-5.374,-0.9924,0,0,0
-0.3003,-0.1262,0.9658,-0.4351,-5.2214,-1.3435,0,0,0
-0.2749,-0.1284,0.9753,-1.4962,-2.1908,-1.4733,0,0,0
-0.2764,-0.1255,0.978,-1.5573,2.4427,-1.0305,0,0,0
-0.2986,-0.1184,0.9736,-3.9084,3.3435,-1.3664,0,0,0
-0.2798,-0.1235,0.9817,-4.0763,2.5344,-1.0916,0,0,0
-0.2944,-0.1233,0.9832,-3.2824,1.5573,-2.1985,0,0,0
-0.2954,-0.1272,0.9778,-2.6107,0.7405,-2.0534,0,0,0
-0.3059,-0.1313,0.9753,-2.1374,-0.4122,-1.9313,0,0,0
-0.2974,-0.1401,0.9763,-1.5954,-0.4885,-1.4504,0,0,0
-0.2954,-0.1316,0.9739,-1.6031,1.2824,-0.9008,0,0,0
-0.3035,-0.1265,0.9656,-2.5038,1.6565,-1.2137,0,0,0
-0.291,-0.1206,0.9746,-3.6641,0.7023,-1.4656,0,0,0
-0.2891,-0.1328,0.9771,-3.0458,0.6794,-1.7252,0,0,0
-0.3027,-0.1321,0.9724,-2.4809,1.1908,-2.4885,0,0,0
-0.2954,-0.1392,0.9812,-1.9084,1.5573,-1.2519,0,0,0
-0.3003,-0.1294,0.9639,-1.1298,2.1374,-1.9542,0,0,0
-0.2976,-0.127,0.9697,-2.0153,-0.4275,-1.2824,0,0,0
-0.2734,-0.1248,0.968,-1.6718,1.0763,-1.7863,0,0,0
-0.2964,-0.1318,0.9692,-2.2061,2.0992,-1.0458,0,0,0
-0.2832,-0.1235,0.9595,-2.8931,3.0992,-1.6412,0,0,0
-0.2993,-0.1292,0.9687,-3.7939,3.5267,-2.626,0,0,0
-0.2971,-0.1279,0.9729,-2.9695,3.1985,-2.626,0,0,0
-0.3127,-0.1375,0.9644,-3.8015,0.7099,-2.2061,0,0,0
-0.2922,-0.1216,0.9839,-3.0687,0.626,-2.1527,0,0,0
-0.3091,-0.1426,0.9697,-2.7939,1.2595,-1.7023,0,0,0
-0.3015,-0.1375,0.9829,-3.1603,2.3511,-0.916,0,0,0
-0.314,-0.1418,0.9697,-3.2824,2.4198,-0.855,0,0,0
-0.293,-0.1431,0.9756,-1.5496,2.7023,-1.5496,0,0,0
-0.3071,-0.1304,0.9622,-1.6336,2.1756,-0.9924,0,0,0
-0.269,-0.1301,0.9788,-1.9618,1.9008,-0.8702,0,0,0
-0.2979,-0.127,0.9675,-3.4962,5.4656,-1.1145,0,0,0
-0.3059,-0.135,0.9731,-4.6718,5.2901,-0.9847,0,0,0
-0.3228,-0.1357,0.9773,-4.2214,6.2977,-1.3893,0,0,0
-0.3354,-0.1509,0.9619,-3.6641,1.771,-1.1298,0,0,0
-0.3098,-0.1404,0.9841,-1.9008,-0.9695,-1.9237,0,0,0
-0.2766,-0.1406,0.9792,-0.0687,0.9695,-0.916,0,0,0
-0.2905,-0.126,0.9634,0.5038,5.3588,0.0382,0,0,0
-0.3179,-0.1216,0.9353,-2.2901,3.7634,0.0458,0,0,0
-0.3042,-0.1335,0.9402,-4.2748,0.9924,-0.9389,0,0,0
-0.2993,-0.1472,0.9751,-4.9618,2.2443,-2.2061,0,0,0
-0.2996,-0.1479,0.991,-4.313,5.3588,-0.8779,0,0,0
-0.3196,-0.146,0.9854,-3.374,9.3435,-1.2901,0,0,0
-0.3403,-0.1536,0.9717,-3.1069,7.542,-0.7481,0,0,0
-0.3328,-0.146,0.9832,-1.458,5.5267,0.4198,0,0,0
-0.3149,-0.1516,0.9675,0.0992,2.0,0.8931,0,0,0
-0.3066,-0.1296,0.9651,1.4809,2.1985,0.9389,0,0,0
-0.3152,-0.1243,0.9404,0.1145,0.6031,0.4656,0,0,0
-0.323,-0.127,0.9314,-2.1145,-0.9084,0.4427,0,0,0
-0.333,-0.137,0.9395,-4.0305,-3.2366,0.313,0,0,0
-0.3081,-0.1519,0.978,-4.0611,-2.6565,-1.7328,0,0,0
-0.3459,-0.1594,0.9749,-2.4046,-3.229,-0.0534,0,0,0
-0.3044,-0.1426,0.9929,0.458,-3.6336,-0.0687,0,0,0
-0.3008,-0.1372,0.9778,2.3969,-2.6183,-0.2519,0,0,0
-0.3032,-0.1226,0.9546,1.8702,-1.9924,0.1985,0,0,0
-0.3093,-0.1167,0.9368,-0.2748,-1.8473,0.1298,0,0,0
-0.2971,-0.1145,0.9429,-2.7557,-1.0992,-1.3511,0,0,0
-0.303,-0.1333,0.9673,-4.4809,0.4656,-1.1069,0,0,0
-0.3057,-0.1333,0.981,-4.7023,0.2977,-0.8473,0,0,0
-0.3198,-0.1438,0.9924,-3.3206,-1.1908,-1.7863,0,0,0
-0.3252,-0.1301,0.9846,-0.9771,-1.4046,-0.7939,0,0,0
-0.321,-0.1399,0.9766,-0.3817,-1.3206,0.8244,0,0,0
-0.3,-0.135,0.9658,-0.5725,-1.8473,-0.3282,0,0,0
-0.2876,-0.1313,0.9666,-0.5496,0.3282,-0.7481,0,0,0
-0.304,-0.1326,0.9521,-0.5725,3.9237,-1.4427,0,0,0
-0.311,-0.1282,0.9395,-2.0534,5.6107,-0.4122,0,0,0
-0.3335,-0.1357,0.9412,-3.374,4.0,-0.8015,0,0,0
-0.325,-0.125,0.958,-4.6336,1.9542,-0.7405,0,0,0
-0.3081,-0.1289,0.9714,-4.6412,1.855,-1.1832,0,0,0
-0.3132,-0.1387,0.9824,-4.1603,1.7099,-1.2824,0,0,0
-0.3201,-0.1377,0.9824,-4.2519,0.6336,-1.458,0,0,0
-0.3218,-0.1523,0.9849,-2.1679,1.7786,-1.9542,0,0,0
-0.2925,-0.1465,0.9988,-1.1221,4.2595,-0.3664,0,0,0
-0.3076,-0.1401,0.9771,-1.374,12.4733,-0.4275,0,0,0
-0.3503,-0.1316,0.9529,-4.0687,13.3664,0.4885,0,0,0
-0.3354,-0.1313,0.9526,-5.2061,10.7099,1.0992,0,0,0
-0.3396,-0.1436,0.9597,-3.9084,4.5649,0.1374,0,0,0
-0.3064,-0.1326,0.9731,-1.2595,3.7252,-1.9695,0,0,0
-0.3533,-0.1394,0.9568,-0.4351,3.1527,-2.458,0,0,0
-0.3569,-0.1343,0.9387,-1.4275,-1.2595,-2.229,0,0,0
-0.355,-0.1411,0.9387,-2.2137,-5.9695,-1.1527,0,0,0
-0.3386,-0.147,0.9648,-1.9313,-9.2977,-1.2366,0,0,0
-0.3015,-0.1521,0.9731,-0.8015,-9.4122,0.3588,0,0,0
-0.3074,-0.1499,0.9727,0.5802,-4.626,-0.4427,0,0,0
-0.3101,-0.1396,0.9573,0.0153,-0.5954,-1.6489,0,0,0
-0.3259,-0.1406,0.9485,-0.7939,-0.7863,0.1908,0,0,0
-0.2861,-0.1311,0.9746,-0.9542,-1.0916,-0.5267,0,0,0
-0.2971,-0.1228,0.969,-2.2748,4.2595,-0.9237,0,0,0
-0.3308,-0.1438,0.9495,-3.5954,5.7099,-0.2901,0,0,0
-0.3411,-0.144,0.9443,-3.5954,0.916,0.2748,0,0,0
-0.3384,-0.145,0.9609,-2.3817,-3.7481,-0.5954,0,0,0
-0.3245,-0.1401,0.9746,-1.2214,-5.2901,-1.1679,0,0,0
-0.3047,-0.1433,0.9749,0.7023,-3.6107,-1.5649,0,0,0
-0.3132,-0.1301,0.9602,0.4275,-1.4275,-0.2672,0,0,0
-0.3164,-0.1345,0.9482,-1.0763,-1.2901,-1.2443,0,0,0
-0.3118,-0.1299,0.9502,-2.1908,-1.4275,-0.7939,0,0,0
-0.3162,-0.1323,0.9614,-3.1145,-1.2137,-0.6183,0,0,0
-0.3091,-0.134,0.9717,-2.8015,-0.229,-1.7634,0,0,0
-0.3115,-0.1343,0.9736,-1.7634,0.5496,-2.1298,0,0,0
-0.3091,-0.1384,0.9626,-0.4504,1.4046,-2.5267,0,0,0
-0.323,-0.1294,0.9563,-1.4809,1.6794,-2.5115,0,0,0
-0.3223,-0.1365,0.9556,-3.0458,1.0305,-2.5573,0,0,0
-0.3445,-0.1421,0.9553,-3.2901,-1.4046,-2.1756,0,0,0
-0.2922,-0.1379,0.9785,-2.8244,-1.687,-1.0229,0,0,0
-0.3311,-0.156,0.9619,-1.0458,0.4733,-1.374,0,0,0
-0.3535,-0.144,0.9438,-0.9771,-2.3053,-1.4962,0,0,0
-0.3135,-0.1392,0.9714,-2.1374,-1.4809,-1.2137,0,0,0
-0.3269,-0.1406,0.9741,-2.9466,0.2366,-1.4504,0,0,0
-0.3096,-0.1379,0.9661,-2.2824,0.6718,-0.7557,0,0,0
-0.3223,-0.1409,0.9629,-1.8015,-0.3359,-1.084,0,0,0
-0.3223,-0.1375,0.9595,-2.6412,-2.6641,-1.1374,0,0,0
-0.3154,-0.1587,0.9685,-1.0382,-3.5496,-1.3511,0,0,0
-0.3167,-0.1455,0.9741,-0.0916,-1.1908,-2.5802,0,0,0
-0.3315,-0.144,0.957,-0.7634,-0.1908,-1.2672,0,0,0
-0.3186,-0.1436,0.9609,-1.9695,0.2672,-0.7252,0,0,0
-0.3313,-0.137,0.9587,-2.5725,0.2595,-0.3664,0,0,0
-0.3269,-0.1516,0.958,-1.9313,-1.9237,0.4198,0,0,0
-0.3196,-0.1372,0.9531,-1.3359,-2.6336,-0.5191,0,0,0
-0.3079,-0.1377,0.9578,-1.3511,-2.626,0.2366,0,0,0
-0.3115,-0.137,0.9609,-1.6183,-0.9542,-0.1069,0,0,0
-0.3237,-0.1396,0.9585,-2.916,-1.6718,-0.855,0,0,0
-0.3203,-0.1418,0.9788,-3.8092,0.0076,-0.3206,0,0,0
-0.3408,-0.1499,0.9673,-2.2519,-0.7405,-0.4275,0,0,0
-0.3284,-0.1467,0.9609,-0.2061,-4.2977,-0.6489,0,0,0
-0.312,-0.1362,0.9639,1.2748,-4.5954,-1.0687,0,0,0
-0.3191,-0.1345,0.9492,1.1221,-4.6107,-1.0611,0,0,0
-0.3123,-0.1201,0.9468,-0.2366,-2.7405,-0.6489,0,0,0
-0.3057,-0.1301,0.9539,-3.4809,0.4885,-1.3664,0,0,0
-0.3218,-0.1431,0.9558,-5.4198,1.7786,-1.1985,0,0,0
-0.3184,-0.137,0.9839,-5.3664,1.9542,0.4733,0,0,0
-0.3237,-0.1404,0.9771,-4.1527,1.7023,1.0,0,0,0
-0.3335,-0.1448,0.968,-2.0153,0.4733,0.0992,0,0,0
-0.3154,-0.1409,0.9678,-0.4733,-1.9389,-1.3435,0,0,0
-0.3237,-0.136,0.9602,-0.313,-3.1374,-1.4885,0,0,0
-0.3057,-0.127,0.9687,-1.084,-3.7099,-1.855,0,0,0
-0.3108,-0.1392,0.9578,-0.9237,-3.1527,-1.8321,0,0,0
-0.2827,-0.1204,0.9863,-0.6794,1.5802,-1.4198,0,0,0
-0.3301,-0.1387,0.9583,-1.9389,3.6794,-1.1374,0,0,0
-0.3403,-0.1396,0.9268,-2.313,0.8321,0.2519,0,0,0
-0.3201,-0.1372,0.9438,-2.3053,-3.2366,-1.1908,0,0,0
-0.304,-0.1404,0.9629,-2.8931,-2.3817,-2.3817,0,0,0
-0.324,-0.1465,0.9656,-2.7176,0.7328,-1.7405,0,0,0
-0.3301,-0.1455,0.978,-3.2824,-0.3053,-1.0305,0,0,0
-0.3254,-0.147,0.9849,-2.374,-1.9466,-1.2824,0,0,0
-0.3252,-0.1538,0.9807,-1.2977,-3.7099,-0.8321,0,0,0
-0.3113,-0.1438,0.9924,-0.5115,-4.2901,-0.855,0,0,0
-0.3135,-0.1426,0.9763,0.0,-2.4122,-0.5267,0,0,0
-0.3013,-0.1377,0.9683,1.0,-1.084,-0.2137,0,0,0
-0.3206,-0.1343,0.9468,-0.2443,1.6107,-0.1603,0,0,0
-0.3291,-0.1401,0.936,-2.1756,-0.1679,-0.5115,0,0,0
-0.3083,-0.1372,0.9473,-3.1221,-0.4198,-0.5954,0,0,0
-0.3176,-0.1436,0.9653,-3.5573,-0.8244,-0.8626,0,0,0
-0.3213,-0.1438,0.9646,-2.6336,-0.2519,-0.4733,0,0,0
-0.3264,-0.1482,0.9761,-2.1832,-2.1527,-0.0992,0,0,0
-0.3149,-0.1416,0.9836,-1.2595,-2.084,-0.2595,0,0,0
-0.3223,-0.1501,0.968,0.0382,-2.4962,-0.145,0,0,0
-0.3074,-0.1309,0.9563,0.3588,-2.4122,-1.2672,0,0,0
-0.3027,-0.1387,0.9521,-1.2366,-1.7099,-1.0534,0,0,0
-0.3037,-0.1333,0.9631,-3.0611,-0.7481,-1.4504,0,0,0
-0.3127,-0.135,0.9756,-4.0611,0.0611,-1.1679,0,0,0
-0.3181,-0.1514,0.9807,-2.5725,0.5573,-0.6718,0,0,0
-0.3289,-0.1506,0.9805,-1.3053,-0.9924,0.0076,0,0,0
-0.3149,-0.1438,0.9705,-0.0763,-1.8473,-0.3282,0,0,0
-0.322,-0.1399,0.9622,-0.4733,-2.1145,-0.458,0,0,0
-0.3008,-0.1458,0.9646,-0.542,-1.687,-0.1908,0,0,0
-0.3052,-0.1326,0.9546,-0.2977,1.5802,-0.1221,0,0,0
-0.3125,-0.1299,0.9534,-2.0763,0.7023,-0.3893,0,0,0
-0.3167,-0.1367,0.9509,-2.6565,-0.4733,-1.5191,0,0,0
-0.3191,-0.1384,0.958,-2.4962,-1.7786,-0.6489,0,0,0
-0.3079,-0.136,0.9666,-1.2366,-2.4046,-0.7328,0,0,0
-0.3179,-0.1345,0.9624,-1.1069,-1.8779,-1.1603,0,0,0
-0.3164,-0.1404,0.9539,-1.916,-3.2137,-0.7939,0,0,0
-0.3193,-0.146,0.9573,-2.3053,-3.145,-0.916,0,0,0
-0.3179,-0.1475,0.9685,-2.1908,-1.7099,-1.1298,0,0,0
-0.3167,-0.1448,0.979,-1.7863,0.0763,-0.7786,0,0,0
-0.3196,-0.1443,0.9744,-1.3511,-0.3359,-0.0992,0,0,0
-0.3223,-0.1448,0.9644,-0.7786,-2.3435,-0.3053,0,0,0
-0.3088,-0.1409,0.9729,-0.4504,-2.9237,-0.9618,0,0,0
-0.3193,-0.1399,0.9685,-0.9695,-2.0763,-0.2443,0,0,0
-0.3145,-0.1409,0.9653,-0.7328,-2.916,-0.0687,0,0,0
-0.3113,-0.1426,0.96,-0.2443,-3.2443,-0.4275,0,0,0
-0.3101,-0.1372,0.9573,-0.8244,-3.1374,-0.0611,0,0,0
-0.2908,-0.1372,0.968,-1.2748,-1.9695,-0.229,0,0,0
-0.2949,-0.1289,0.9753,-1.8855,0.1985,-0.7328,0,0,0
-0.311,-0.1384,0.968,-2.2595,-0.6336,-0.9237,0,0,0
-0.3267,-0.1411,0.96,-1.7176,-1.4962,-0.7634,0,0,0
-0.2971,-0.1431,0.9746,-1.4275,-1.7939,0.0916,0,0,0
-0.2954,-0.1294,0.9648,-1.2672,1.0153,0.3664,0,0,0
-0.3062,-0.1323,0.9573,-1.4122,1.0992,-0.4809,0,0,0
-0.3147,-0.1406,0.9531,-2.1832,-0.3435,-1.5191,0,0,0
-0.3218,-0.147,0.9558,-2.6794,-2.4427,-0.8168,0,0,0
-0.3208,-0.1421,0.9687,-2.4504,-2.7939,-1.458,0,0,0
-0.3169,-0.1523,0.9722,-1.4351,-2.7405,-0.0916,0,0,0
-0.3196,-0.1445,0.9692,0.3206,-2.5496,1.0534,0,0,0
-0.2996,-0.136,0.9592,0.2977,-2.8321,0.7328,0,0,0
-0.3079,-0.1328,0.9614,-0.8321,-2.7405,0.2366,0,0,0
-0.29,-0.1396,0.9717,-2.8321,-1.8321,-0.9237,0,0,0
-0.3032,-0.1387,0.9687,-3.6489,-0.7863,-0.8473,0,0,0
-0.3071,-0.1453,0.979,-2.1985,-1.3817,0.374,0,0,0
-0.3022,-0.1357,0.9792,-1.0992,-1.0916,-0.7405,0,0,0
-0.3093,-0.1367,0.9722,-0.1298,-1.084,-0.1221,0,0,0
-0.3059,-0.1311,0.9617,-0.0382,-1.3206,-0.0687,0,0,0
-0.2986,-0.1301,0.9604,-0.8931,-1.2672,0.2595,0,0,0
-0.2891,-0.1218,0.9663,-2.5038,-0.5802,-0.1298,0,0,0
-0.2988,-0.1204,0.9636,-3.8168,0.5191,-1.2519,0,0,0
-0.3018,-0.1311,0.9768,-3.6031,1.4198,-1.6489,0,0,0
-0.3145,-0.1326,0.9744,-3.0382,0.229,-1.4962,0,0,0
-0.3037,-0.1277,0.9763,-2.0763,0.2366,-2.7328,0,0,0
-0.3184,-0.1304,0.9753,-1.8168,-0.0916,-2.4504,0,0,0
-0.3091,-0.1311,0.9758,-2.3282,-0.0763,-1.5115,0,0,0
-0.2939,-0.1284,0.9805,-2.8244,1.6336,-1.4275,0,0,0
-0.3025,-0.136,0.9756,-2.5191,3.7863,-1.6718,0,0,0
-0.3176,-0.1589,0.9724,-2.1069,3.084,-0.8092,0,0,0
-0.3203,-0.1221,0.9639,-1.0382,0.8931,-1.5802,0,0,0
-0.3289,-0.1223,0.9473,-0.0382,-0.6947,-1.3359,0,0,0
-0.3235,-0.1362,0.9373,-2.1221,0.7863,0.1908,0,0,0
-0.3147,-0.1694,0.9712,-1.0458,2.2366,0.7405,0,0,0
-0.3149,-0.1226,0.9558,0.1298,1.2977,0.9008,0,0,0
-0.2961,-0.1296,0.9663,-1.0,1.5496,0.6794,0,0,0
-0.3127,-0.1323,0.9614,-1.7176,1.4275,-1.1832,0,0,0
-0.3308,-0.1316,0.9741,-2.5649,0.6107,-0.7176,0,0,0
-0.314,-0.1477,0.9875,-1.8473,1.2595,0.6794,0,0,0
-0.3242,-0.1533,0.9963,-2.9008,1.2366,-1.5878,0,0,0
-0.324,-0.1455,0.9827,-3.5115,1.0382,-1.4351,0,0,0
-0.3103,-0.1785,0.9795,-3.6641,0.9084,-0.8397,0,0,0
-0.3145,-0.1528,0.9722,-4.6107,2.4885,-2.3588,0,0,0
-0.3237,-0.1538,0.9727,-6.0763,2.4656,-2.6641,0,0,0
-0.3267,-0.1768,0.9988,-2.855,0.5344,-1.9389,0,0,0
-0.3064,-0.1646,0.9954,1.9542,-0.4351,-1.374,0,0,0
-0.3369,-0.1753,0.9687,3.855,-1.9847,-0.2137,0,0,0
-0.3271,-0.1562,0.9521,3.8702,-4.4122,0.8244,0,0,0
-0.3235,-0.167,0.9441,3.229,-3.8626,1.4809,0,0,0
-0.3066,-0.1406,0.938,1.2519,-1.1679,1.1145,0,0,0
-0.3225,-0.1472,0.9348,-1.4885,-1.2061,2.2977,0,0,0
-0.3123,-0.1426,0.9426,-2.2977,-1.1832,2.2748,0,0,0
-0.3127,-0.1416,0.9587,-0.7405,-0.8168,2.1221,0,0,0
-0.3242,-0.1377,0.9617,0.0153,-3.4351,2.2901,0,0,0
-0.3064,-0.1262,0.9653,0.4809,-3.5115,1.3893,0,0,0
-0.3403,-0.1211,0.968,0.7863,-4.1069,2.4733,0,0,0
-0.3076,-0.1365,0.979,0.3359,-6.8092,4.2672,0,0,0
-0.3113,-0.1316,0.999,-0.2366,-6.6107,4.313,0,0,0
-0.2983,-0.1372,1.0085,0.9542,-5.6031,4.8626,0,0,0
-0.2996,-0.1299,1.0017,3.458,-4.1985,5.2137,0,0,0
-0.2944,-0.1118,1.0037,4.6565,-3.1756,5.4885,0,0,0
-0.2944,-0.1104,0.9802,4.6947,-2.4809,5.6336,0,0,0
-0.3196,-0.1118,0.9519,3.2672,-5.3817,5.6565,0,0,0
-0.321,-0.1091,0.9658,0.3359,-10.3817,5.7481,0,0,0
-0.2942,-0.1221,1.001,-0.5115,-8.3435,7.0611,0,0,0
-0.2825,-0.1387,1.0251,0.3893,-1.9695,11.5725,0,0,0
-0.2817,-0.105,0.9968,-0.5496,3.5954,15.0382,0,0,0
-0.3,-0.1255,0.99,-1.2443,3.374,21.9924,0,0,0
-0.3091,-0.1123,0.9927,-0.5573,-1.7252,25.6947,0,0,0
-0.3096,-0.0979,0.9963,0.1374,-3.8244,20.6412,0,0,0
-0.3076,-0.1252,0.9861,-1.2061,-2.5191,20.1985,0,0,0
-0.3481,-0.1736,0.968,-0.9542,0.3053,25.6336,0,0,0
-0.3701,-0.1189,0.9619,2.3206,-2.9924,18.8855,0,0,0
-0.3364,-0.137,0.9692,2.6641,-3.1221,16.2595,0,0,0
-0.3567,-0.1462,0.9783,2.374,-5.8473,19.5038,0,0,0
-0.3201,-0.126,0.9751,4.9389,-8.9084,16.2672,0,0,0
-0.3108,-0.1155,0.9773,4.3511,-11.5115,13.0763,0,0,0
-0.2974,-0.1194,0.9885,3.7023,-12.687,12.0229,0,0,0
-0.2776,-0.1238,0.9985,5.687,-11.8473,11.5725,0,0,0
-0.29,-0.0959,0.9888,6.0153,-6.0382,12.9466,0,0,0
-0.312,-0.0974,0.9622,3.916,-4.2366,13.0305,0,0,0
-0.2798,-0.0774,0.9592,3.4885,-5.2366,7.4885,0,0,0
-0.2751,-0.0811,0.9631,2.2672,-6.3893,4.0458,0,0,0
-0.3003,-0.0835,0.9595,1.8015,-11.1756,2.3359,0,0,0
-0.2708,-0.0925,0.9773,3.6412,-16.6794,0.4656,0,0,0
-0.2561,-0.0859,1.0122,6.9924,-14.3282,-2.5191,0,0,0
-0.2729,-0.0801,0.9905,8.6489,-12.4427,-3.4351,0,0,0
-0.2739,-0.073,0.9802,8.2672,-9.2061,-4.229,0,0,0
-0.2966,-0.0632,0.9546,7.4351,-11.5267,-2.2366,0,0,0
-0.2876,-0.0608,0.9597,6.6641,-15.5878,-4.5038,0,0,0
-0.2686,-0.0671,0.9807,6.9542,-18.3893,-6.1603,0,0,0
-0.2571,-0.0662,0.9932,6.0534,-18.4122,-5.3511,0,0,0
-0.2244,-0.0515,0.998,6.916,-10.9313,-6.2214,0,0,0
-0.2842,-0.0754,0.9736,5.4962,-7.1527,-5.0534,0,0,0
-0.2585,-0.0615,0.9626,4.3969,-3.9389,-4.374,0,0,0
-0.2915,-0.072,0.9534,0.7099,-2.7252,-2.5954,0,0,0
-0.2681,-0.0886,0.9749,-0.1832,-2.0,-0.5573,0,0,0
-0.2681,-0.0586,0.9805,0.0611,-2.0153,-1.5573,0,0,0
-0.2559,-0.0723,0.9792,-0.9695,-1.9389,-0.8015,0,0,0
-0.2681,-0.0613,0.9983,-2.3206,-2.2824,0.145,0,0,0
-0.2681,-0.0957,1.0239,-1.5115,-2.9924,1.0229,0,0,0
-0.2717,-0.0872,1.0129,-0.0229,0.9847,0.1985,0,0,0
-0.2725,-0.0935,1.0154,1.9237,2.2214,3.458,0,0,0
-0.2498,-0.0647,1.0107,2.0992,1.5496,1.9466,0,0,0
-0.2446,-0.0793,1.002,1.5878,-1.8168,-0.2672,0,0,0
-0.2368,-0.0579,0.9829,2.9008,-2.542,-4.5573,0,0,0
-0.2664,-0.0803,0.9937,3.313,-5.8473,-3.2214,0,0,0
-0.2319,-0.0813,1.0046,5.3511,-7.5954,-3.9084,0,0,0
-0.2583,-0.0769,0.9839,4.2901,-4.5878,-5.4351,0,0,0
-0.2849,-0.0876,0.9714,2.2366,-5.542,-4.8702,0,0,0
-0.2732,-0.0984,0.9812,0.3435,-7.8702,-5.0229,0,0,0
-0.248,-0.0891,0.9924,-0.4046,-4.6718,-5.2595,0,0,0
-0.2747,-0.1094,0.9966,-0.7252,-3.0611,-4.313,0,0,0
-0.2544,-0.1008,0.9822,0.2443,-0.9924,-5.2519,0,0,0
-0.2942,-0.1172,0.9573,-0.9389,-2.0992,-3.9084,0,0,0
-0.2793,-0.0981,0.9758,-2.4733,-3.3817,-2.3359,0,0,0
-0.2952,-0.1189,0.9775,-2.7405,-1.3511,-3.3359,0,0,0
-0.2029,-0.0342,0.9563,-7.0076,7.3435,-2.3817,0,0,0
-0.2771,-0.0771,0.8987,-15.855,11.7939,-1.5344,0,0,0
-0.2737,-0.0713,0.8994,-23.5496,13.4351,-1.7557,0,0,0
-0.3037,-0.1079,0.9456,-23.5191,8.9466,-1.7863,0,0,0
-0.2852,-0.1218,1.0046,-17.8779,6.3588,-1.5725,0,0,0
-0.2424,-0.0947,1.0249,-9.0153,5.6336,-1.8321,0,0,0
-0.2363,-0.0391,0.9375,-12.0687,1.0305,-9.1145,0,0,0
-0.2832,-0.0889,0.9897,-12.6641,-4.0992,-10.1985,0,0,0
-0.2825,-0.1038,0.9988,-5.0611,-7.3359,-7.5649,0,0,0
-0.2686,-0.1169,1.012,-2.2519,-7.5115,-5.1374,0,0,0
-0.2068,-0.0254,0.9333,-5.3053,-4.1298,-11.8321,0,0,0
-0.2571,-0.0896,0.9827,-6.2672,-3.2901,-11.916,0,0,0
-0.3755,-0.1362,0.9895,-6.3359,-3.3282,-11.0229,0,0,0
-0.3613,-0.1072,0.9858,-7.4962,-13.6412,-8.5802,0,0,0
-0.2727,-0.0608,0.9829,-5.855,-8.5802,-2.1374,0,0,0
-0.3286,-0.0759,0.9448,-13.4656,0.4122,-0.8015,0,0,0
-0.2739,-0.0852,0.9604,-12.7252,4.6947,0.1756,0,0,0
-0.2754,-0.1121,0.9722,-12.5115,0.9618,-0.6107,0,0,0
-0.2791,-0.1292,1.0046,-8.9695,-0.7557,-0.6031,0,0,0
-0.2935,-0.136,0.9966,-7.0916,-0.3206,0.2061,0,0,0
-0.2922,-0.1255,0.9951,-6.8473,-0.6565,-0.5573,0,0,0
-0.2893,-0.1316,0.9839,-5.7634,-4.542,-1.6412,0,0,0
-0.2976,-0.1418,0.9878,-4.4885,-10.374,-2.7481,0,0,0
-0.3445,-0.1819,0.9832,1.7099,-17.2901,-1.0916,0,0,0
-0.3005,-0.157,1.0029,8.0,-22.7557,2.6183,0,0,0
-0.2661,-0.1409,0.9998,13.9618,-22.626,4.8779,0,0,0
-0.1963,-0.0898,0.9868,14.8092,-18.3817,4.9695,0,0,0
-0.1917,-0.0791,0.9717,12.0534,-12.8855,1.6031,0,0,0
-0.2314,-0.0813,0.9622,10.1298,-13.8779,-0.6565,0,0,0
-0.2295,-0.0854,0.9595,8.2595,-18.458,-1.458,0,0,0
-0.2505,-0.1008,0.9707,7.2519,-21.7863,-0.8321,0,0,0
-0.2456,-0.0911,0.9812,6.0534,-25.7099,-0.8092,0,0,0
-0.2524,-0.1016,0.9727,6.5573,-30.6412,-0.916,0,0,0
-0.1743,-0.0767,0.9814,6.4504,-27.916,-3.4962,0,0,0
-0.1763,-0.0813,1.0002,6.7099,-20.6412,-4.8168,0,0,0
-0.1912,-0.0967,1.0076,8.6718,-16.542,-4.9466,0,0,0
-0.1882,-0.0825,1.02,9.6031,-10.7939,-3.3588,0,0,0
-0.217,-0.0964,1.0251,9.5802,-8.313,-3.2977,0,0,0
-0.228,-0.0842,1.019,8.3435,-10.4962,-1.4504,0,0,0
-0.2236,-0.1003,1.0254,7.5038,-12.771,-0.1221,0,0,0
-0.1938,-0.0737,1.0444,6.5878,-12.5115,0.9313,0,0,0
-0.2095,-0.0911,1.0271,5.2901,-10.6641,2.2519,0,0,0
-0.1914,-0.062,1.0168,3.6183,-5.6794,1.4809,0,0,0
-0.1982,-0.0842,1.0002,2.0,-2.7328,0.3206,0,0,0
-0.1948,-0.0745,1.021,-0.1069,-1.0153,-0.1527,0,0,0
-0.2075,-0.0652,1.0186,-1.6183,2.5191,2.2977,0,0,0
-0.1758,-0.0613,1.0269,-3.3206,8.7786,3.5954,0,0,0
-0.1943,-0.0657,1.0076,-5.2672,11.9237,4.2672,0,0,0
-0.2134,-0.0698,1.0093,-6.3664,11.145,3.9237,0,0,0
-0.2051,-0.0681,0.9961,-6.2595,10.4809,3.5573,0,0,0
-0.2239,-0.0955,0.9937,-5.542,12.084,5.229,0,0,0
-0.2227,-0.0581,0.9844,-6.1985,11.2977,5.2595,0,0,0
-0.2153,-0.0667,0.99,-7.4809,10.5802,3.6718,0,0,0
-0.2219,-0.0715,0.9954,-8.6412,8.5649,2.1603,0,0,0
-0.2432,-0.103,1.0059,-5.7023,8.3053,3.7634,0,0,0
-0.2117,-0.0679,0.9934,-8.8321,9.2443,4.5496,0,0,0
-0.2305,-0.0388,0.9707,-12.626,6.4733,3.084,0,0,0
-0.2183,-0.0776,1.0125,-8.3053,3.458,4.084,0,0,0
-0.2017,-0.0854,1.0039,-9.3282,-0.0229,5.0382,0,0,0
-0.228,-0.0803,1.002,-11.6947,1.8015,6.7252,0,0,0
-0.2119,-0.0815,1.0095,-14.1298,3.855,8.5802,0,0,0
-0.2288,-0.1123,0.9595,-17.0687,7.7863,8.7634,0,0,0
-0.2126,-0.0774,1.0244,-15.8473,5.0534,7.1679,0,0,0
-0.2251,-0.1411,1.0042,-12.9618,2.3511,7.0916,0,0,0
-0.2683,-0.1013,0.9805,-12.1908,-0.6718,6.9771,0,0,0
-0.2449,-0.1133,0.9927,-12.1756,-1.2061,8.084,0,0,0
-0.2095,-0.0933,1.0151,-14.9008,-2.3664,7.9084,0,0,0
-0.2502,-0.1265,0.9841,-16.4351,-5.7176,7.1374,0,0,0
-0.1846,-0.095,0.9868,-17.626,-7.6107,8.374,0,0,0
-0.0623,-0.0933,1.1077,-31.3588,11.9771,17.4275,0,0,0
-0.3086,-0.1484,0.9351,-24.4656,5.6031,15.5649,0,0,0
-0.2708,-0.1428,0.9338,-19.4656,-3.0992,10.145,0,0,0
-0.2395,-0.1157,0.9478,-14.0458,-8.2672,9.4504,0,0,0
-0.228,-0.1055,0.979,-12.626,-5.4351,9.374,0,0,0
-0.2241,-0.136,1.0022,-11.5115,-3.3053,8.3664,0,0,0
-0.2329,-0.1096,1.0247,-13.687,-3.6794,8.2901,0,0,0
-0.25,-0.124,0.9871,-10.4122,-6.5191,5.3053,0,0,0
-0.23,-0.126,1.0005,-10.4656,-8.2061,6.4962,0,0,0
-0.2815,-0.0776,0.9707,-12.4275,-11.0458,6.7099,0,0,0
-0.2327,-0.1296,0.9905,-12.8168,-10.2519,8.8168,0,0,0
-0.1968,-0.1521,1.0168,-15.8397,-8.8168,9.9618,0,0,0
-0.229,-0.1138,0.9885,-13.0382,-10.0305,10.2595,0,0,0
-0.2231,-0.1357,0.99,-13.7328,-11.8473,10.5038,0,0,0
-0.2117,-0.1079,1.0591,-18.7252,-11.8931,10.0153,0,0,0
-0.2061,-0.1213,1.0244,-21.9237,-13.4962,11.916,0,0,0
-0.2029,-0.1389,1.0303,-26.0687,-15.6794,14.0458,0,0,0
-0.1973,-0.1584,1.0042,-24.2595,-17.7863,14.5344,0,0,0
-0.1555,-0.1929,0.9797,-18.3053,-14.8702,18.2977,0,0,0
-0.1338,-0.2207,0.9875,-10.8321,-12.0534,26.2366,0,0,0
-0.1338,-0.1794,0.9905,-4.7786,-6.9847,30.9847,0,0,0
-0.1443,-0.1624,1.0051,-5.7328,1.1221,35.8626,0,0,0
-0.1877,-0.1663,0.9998,-7.0305,2.7023,38.5573,0,0,0
-0.156,-0.1951,0.9907,-4.9008,5.4275,41.1908,0,0,0
-0.1462,-0.2061,0.9468,3.9695,8.229,45.145,0,0,0
-0.1567,-0.1912,0.9497,14.1603,11.1221,53.1527,0,0,0
-0.1682,-0.1541,0.9497,19.687,18.6412,56.3817,0,0,0
-0.2122,-0.1526,0.9641,22.5344,18.4504,59.1832,0,0,0
-0.2615,-0.1121,0.9426,21.7252,12.7481,55.1985,0,0,0
-0.2522,-0.0623,0.9966,16.3588,10.0382,51.4275,0,0,0
-0.2705,-0.0437,1.0405,7.3664,13.4122,44.6947,0,0,0
-0.283,-0.0889,1.03,0.2901,11.6183,41.2595,0,0,0
-0.2878,-0.0896,1.0137,-3.5038,10.4351,35.7481,0,0,0
-0.2554,-0.0923,1.0007,-5.0305,9.9389,33.687,0,0,0
-0.269,-0.0891,1.001,-5.1756,10.7939,31.5725,0,0,0
-0.272,-0.0754,0.9868,-6.7634,9.7099,29.0153,0,0,0
-0.2976,-0.0652,0.9841,-9.8779,7.8397,24.3206,0,0,0
-0.2793,-0.0591,0.9922,-13.4504,3.3053,20.2137,0,0,0
-0.2493,-0.1074,0.9893,-15.6336,2.8779,20.2824,0,0,0
-0.2708,-0.1045,0.9648,-13.5191,2.7023,20.4504,0,0,0
-0.2471,-0.1179,0.9871,-12.2824,-0.8626,20.4656,0,0,0
-0.2581,-0.1096,1.0039,-11.4427,-0.3053,22.5725,0,0,0
-0.2554,-0.0947,1.0107,-12.855,-2.4809,21.6489,0,0,0
-0.2617,-0.084,1.0027,-15.3206,-1.0382,18.7863,0,0,0
-0.2502,-0.1082,1.0032,-16.3893,-2.0,19.3893,0,0,0
-0.2419,-0.1125,0.9983,-15.6489,-0.8931,21.916,0,0,0
-0.241,-0.1147,1.0042,-16.3359,0.0382,25.3359,0,0,0
-0.2666,-0.1028,0.9958,-17.3969,-0.145,22.2137,0,0,0
-0.2556,-0.1152,1.0073,-17.7176,-0.2519,23.0534,0,0,0
-0.2666,-0.1243,1.0049,-18.8092,2.9618,23.0382,0,0,0
-0.2703,-0.1265,0.9932,-18.9618,1.687,23.1069,0,0,0
-0.27,-0.1165,0.988,-20.6489,0.0076,22.9618,0,0,0
-0.2537,-0.1335,0.9805,-21.6183,-0.0229,24.1603,0,0,0
-0.2358,-0.1348,0.9602,-19.8397,0.6947,24.9924,0,0,0
-0.2463,-0.1353,0.969,-18.8855,1.8015,27.7328,0,0,0
-0.2715,-0.1309,0.9424,-16.6794,0.6718,27.4504,0,0,0
-0.2622,-0.1362,0.948,-13.4885,-0.3588,26.3664,0,0,0
-0.2734,-0.1372,0.9409,-9.8702,0.8931,26.9771,0,0,0
-0.2864,-0.1045,0.9407,-6.7786,0.9695,26.0458,0,0,0
-0.3052,-0.1169,0.9631,-5.7328,1.229,23.9466,0,0,0
-0.3167,-0.1118,0.9856,-4.4962,0.8779,21.1679,0,0,0
-0.2922,-0.1001,1.0063,-7.2137,0.4427,18.916,0,0,0
-0.3103,-0.0847,0.9863,-11.8855,0.771,15.3206,0,0,0
-0.3191,-0.1106,0.9512,-13.1298,-1.458,10.6641,0,0,0
-0.2837,-0.1387,0.9502,-9.3206,-3.4275,7.374,0,0,0
-0.2705,-0.136,0.9634,-5.7481,-2.1527,9.9313,0,0,0
-0.2864,-0.1216,0.9675,-2.9313,-0.6489,8.7481,0,0,0
-0.2825,-0.1213,0.9939,-3.4046,-1.626,11.1298,0,0,0
-0.261,-0.1255,1.0129,-6.7557,-2.2443,14.2672,0,0,0
-0.2793,-0.1372,1.001,-13.5725,0.6565,12.458,0,0,0
-0.2935,-0.1333,0.9753,-15.7252,-7.1527,10.145,0,0,0
-0.2493,-0.1543,0.9949,-18.8473,-6.916,8.9466,0,0,0
-0.303,-0.1365,0.9597,-18.7405,-6.9618,5.9695,0,0,0
-0.2786,-0.1367,0.9739,-18.2366,-7.6565,4.3359,0,0,0
-0.2415,-0.1685,0.9722,-18.5191,-1.9618,6.313,0,0,0
-0.2876,-0.1775,0.9333,-11.8168,-0.5649,3.8931,0,0,0
-0.2712,-0.1672,0.9539,-5.7863,-4.4046,3.1832,0,0,0
-0.2371,-0.165,0.9861,-2.542,-1.9618,6.5802,0,0,0
-0.2537,-0.1533,0.9812,0.0153,-0.3359,8.5573,0,0,0
-0.2339,-0.1553,1.0083,-2.1985,-0.3435,12.1374,0,0,0
-0.2756,-0.1377,0.9929,-5.3053,0.2901,11.1298,0,0,0
-0.2827,-0.1467,0.9878,-7.0611,-1.2901,8.8473,0,0,0
-0.2961,-0.1274,0.9719,-7.4504,-1.0534,6.4427,0,0,0
-0.2854,-0.1404,0.9912,-9.0153,-5.0305,8.0229,0,0,0
-0.3247,-0.106,0.9846,-11.4962,-5.8779,6.7405,0,0,0
-0.3159,-0.1277,0.9539,-15.855,-9.229,3.4046,0,0,0
-0.301,-0.1492,0.9263,-12.5496,-12.7328,-2.6412,0,0,0
-0.231,-0.1589,0.9675,-8.9313,-12.3588,-3.8397,0,0,0
-0.2256,-0.179,0.9819,-6.5267,-7.7328,1.6794,0,0,0
-0.2732,-0.1653,0.991,-5.9695,-11.0687,5.9618,0,0,0
-0.2502,-0.1445,0.9907,-9.4504,-12.1985,4.3893,0,0,0
-0.2529,-0.1714,0.9666,-11.5344,-11.8931,3.4275,0,0,0
-0.2427,-0.1765,0.9556,-10.6565,-12.0992,1.5344,0,0,0
-0.2312,-0.1887,0.9563,-6.6031,-11.374,2.2061,0,0,0
-0.2424,-0.1777,0.969,-1.3893,-7.7863,3.2519,0,0,0
-0.2278,-0.2007,0.9932,2.1298,-4.9466,6.9542,0,0,0
-0.2209,-0.1812,1.0027,3.4275,-2.0687,9.1603,0,0,0
-0.2439,-0.1606,0.9924,1.6794,1.2672,9.626,0,0,0
-0.2578,-0.155,0.9895,0.2672,-0.9389,9.6947,0,0,0
-0.2683,-0.1584,0.9849,-0.0916,-0.7099,7.7023,0,0,0
-0.2676,-0.155,0.9722,1.4504,-0.8015,4.5802,0,0,0
-0.2629,-0.1499,0.9739,2.9771,1.1069,2.4046,0,0,0
-0.2559,-0.1489,0.9861,2.7023,0.855,4.8473,0,0,0
-0.2629,-0.1367,0.9978,0.3969,-1.6107,5.916,0,0,0
-0.2549,-0.1658,1.0059,-2.8321,-2.3664,6.7786,0,0,0
-0.2424,-0.1719,1.002,-3.4351,-1.3817,7.374,0,0,0
-0.2302,-0.1628,0.9954,-3.7557,1.5954,8.8321,0,0,0
-0.2629,-0.1567,0.9641,-4.2595,3.3893,7.8244,0,0,0
-0.2856,-0.1401,0.947,-2.8397,1.2366,4.7252,0,0,0
-0.2732,-0.1458,0.9485,-1.2901,-2.8244,1.0229,0,0,0
-0.2583,-0.1584,0.9519,0.9542,-1.9008,-0.9847,0,0,0
-0.2456,-0.1694,0.9758,5.3511,-1.3969,-0.9084,0,0,0
-0.2166,-0.1704,0.9858,5.9466,2.7786,1.7328,0,0,0
-0.2805,-0.1572,0.9651,7.9924,2.2137,2.7634,0,0,0
-0.2639,-0.1394,0.9934,6.6107,-0.6489,3.6031,0,0,0
-0.2852,-0.1204,0.999,1.3817,-2.2977,-0.0687,0,0,0
-0.2566,-0.1448,1.0095,-1.4351,-3.916,-1.5496,0,0,0
-0.2549,-0.1553,0.9836,-1.7252,-2.458,-1.8168,0,0,0
-0.2568,-0.1477,0.9624,0.313,-3.2061,-3.7634,0,0,0
-0.2349,-0.1458,0.9746,0.7863,-5.1374,-2.8015,0,0,0
-0.2429,-0.1504,0.9856,1.4351,-4.8779,-1.1679,0,0,0
-0.2673,-0.1357,0.9753,1.5115,-4.6794,-2.6336,0,0,0
-0.2991,-0.1108,0.9709,0.0763,-9.9542,-7.5649,0,0,0
-0.2473,-0.1199,0.9912,-3.0458,-14.5954,-11.5954,0,0,0
-0.2498,-0.165,0.9814,-3.6489,-15.1985,-11.4504,0,0,0
-0.2234,-0.1646,0.9771,-0.9771,-13.5725,-11.084,0,0,0
-0.2195,-0.1538,0.9897,0.8931,-11.7328,-8.9237,0,0,0
-0.1694,-0.1509,1.03,-1.3206,-5.916,-0.5496,0,0,0
-0.2744,-0.1396,0.97,-1.7634,-3.313,-1.6031,0,0,0
-0.2654,-0.1357,0.9719,-0.313,-8.1908,-3.3893,0,0,0
-0.2568,-0.1326,0.9978,-0.4656,-10.6641,-5.9542,0,0,0
-0.2129,-0.1492,1.0095,-1.7328,-7.6565,-4.4656,0,0,0
-0.2534,-0.1414,1.001,-2.2137,-7.0,-5.9389,0,0,0
-0.2312,-0.1519,0.998,-3.2137,-8.3511,-7.8855,0,0,0
-0.2312,-0.1541,0.9758,-3.7863,-8.5115,-10.6489,0,0,0
-0.2117,-0.1689,0.9871,-2.3282,-10.3359,-10.8702,0,0,0
-0.2109,-0.1589,0.9841,-0.855,-9.4504,-7.6947,0,0,0
-0.2183,-0.1489,0.9846,0.2443,-9.0,-7.5802,0,0,0
-0.2043,-0.1423,1.01,-1.4351,-7.4885,-4.1527,0,0,0
-0.2361,-0.136,0.9849,-2.2748,-6.8931,-6.0992,0,0,0
-0.2173,-0.1499,0.9956,-3.4046,-9.5573,-5.6412,0,0,0
-0.2034,-0.1641,0.9993,-3.5725,-6.4427,-5.2672,0,0,0
-0.2256,-0.165,0.9846,-2.7176,-8.7023,-4.4504,0,0,0
-0.2192,-0.1438,0.998,-3.626,-8.5191,-5.1985,0,0,0
-0.2068,-0.1565,1.0002,-4.3359,-8.4504,-5.6565,0,0,0
-0.2087,-0.1489,0.9993,-4.542,-6.3206,-4.1069,0,0,0
-0.2078,-0.1531,0.9907,-4.3435,-7.6794,-4.7557,0,0,0
-0.1943,-0.1648,0.9832,-4.5878,-5.2366,-3.7481,0,0,0
-0.166,-0.1824,0.9797,-1.8626,-2.0,-0.7481,0,0,0
-0.1775,-0.1763,0.9619,2.4504,2.7176,2.1908,0,0,0
-0.2112,-0.1636,0.9502,6.916,1.9008,1.4885,0,0,0
-0.2004,-0.1526,0.979,8.1374,1.8244,1.3664,0,0,0
-0.2222,-0.1523,0.9841,8.0458,-0.1603,2.6947,0,0,0
-0.2202,-0.1455,0.9919,6.2061,-1.0611,0.0305,0,0,0
-0.2246,-0.1465,0.9824,5.3664,-3.3969,-1.4122,0,0,0
-0.176,-0.156,1.0142,4.8931,-2.7863,-0.4122,0,0,0
-0.197,-0.1472,1.001,4.7023,0.5649,1.4198,0,0,0
-0.2041,-0.1553,1.0088,4.0992,0.1145,2.6183,0,0,0
-0.2126,-0.1394,1.0137,2.5496,-0.9237,2.4275,0,0,0
-0.2219,-0.1365,1.0112,1.8702,-1.4427,1.5573,0,0,0
-0.2268,-0.1313,1.0251,0.1145,-2.7176,0.9313,0,0,0
-0.2136,-0.1252,1.0112,-0.374,-3.0,-0.626,0,0,0
-0.1936,-0.1348,1.0188,-1.6565,-3.1527,0.542,0,0,0
-0.218,-0.1409,1.0078,-1.5038,-0.4733,1.5191,0,0,0
-0.208,-0.1309,1.0049,-2.0,-0.7863,1.1832,0,0,0
-0.21,-0.1279,0.9915,-2.8015,-0.9466,-0.145,0,0,0
-0.2175,-0.1338,0.9873,-2.6336,-0.4275,-0.8779,0,0,0
-0.2185,-0.1367,0.9707,-0.626,0.1145,-1.9542,0,0,0
-0.2114,-0.1345,0.9917,1.0992,-3.0382,-1.7252,0,0,0
-0.2046,-0.1279,1.0176,0.2443,-1.0153,-2.0458,0,0,0
-0.1948,-0.1287,1.0183,-1.9008,0.0305,-0.9389,0,0,0
-0.2019,-0.1436,1.011,-3.3893,0.1221,-1.1069,0,0,0
-0.2017,-0.1475,1.0005,-4.4122,-1.8473,-0.4656,0,0,0
-0.2019,-0.1445,0.9939,-4.626,-1.0916,-0.5649,0,0,0
-0.2019,-0.1526,0.9878,-4.374,-1.2366,0.0992,0,0,0
-0.1946,-0.1521,0.9812,-3.084,0.7176,0.5115,0,0,0
-0.207,-0.1492,0.9785,-1.0153,1.7176,1.5038,0,0,0
-0.2205,-0.1418,0.9648,1.2519,1.5573,0.687,0,0,0
-0.2073,-0.1289,0.9761,1.2977,0.7252,-0.2061,0,0,0
-0.2214,-0.1333,0.97,1.3435,0.9084,0.1679,0,0,0
-0.1968,-0.1362,0.9927,2.1145,-1.2061,-0.8473,0,0,0
-0.1921,-0.1414,0.9993,2.5344,0.8779,0.916,0,0,0
-0.2126,-0.1582,1.0056,2.7252,0.7557,1.3435,0,0,0
-0.2329,-0.1389,1.0139,3.0382,-1.1298,-0.2519,0,0,0
-0.219,-0.1335,1.0322,0.0534,-4.1985,-1.7481,0,0,0
-0.2104,-0.1235,1.0383,-3.6641,-3.1221,-2.9008,0,0,0
-0.1882,-0.1453,1.0259,-5.626,-0.3893,-1.1069,0,0,0
-0.2102,-0.1345,0.9998,-4.2519,1.1374,-0.4275,0,0,0
-0.2271,-0.116,0.9939,-2.7863,2.0534,0.0763,0,0,0
-0.2385,-0.1125,0.9834,-2.1908,0.5802,-2.9389,0,0,0
-0.2073,-0.1257,0.9958,-2.9084,-1.6107,-2.8397,0,0,0
-0.1943,-0.1326,1.0046,-4.4122,0.0458,-3.1756,0,0,0
-0.2031,-0.1567,0.9878,-3.1756,-0.2595,-2.8855,0,0,0
-0.1958,-0.1545,0.9941,-1.0458,0.4046,-2.2977,0,0,0
-0.198,-0.1467,1.0037,0.1145,3.1756,-1.6947,0,0,0
-0.196,-0.1384,1.0229,0.3893,5.1527,0.2824,0,0,0
-0.2126,-0.1335,1.0151,-1.084,8.8397,0.9237,0,0,0
-0.2043,-0.1487,0.9939,-1.2672,8.9618,2.0076,0,0,0
-0.2009,-0.1626,0.9875,1.4733,12.6031,2.8092,0,0,0
-0.2131,-0.1477,0.9795,4.229,12.6718,3.771,0,0,0
-0.2083,-0.1333,0.9854,3.0687,12.0611,3.4427,0,0,0
-0.2219,-0.1462,0.9731,3.4122,12.6183,1.4351,0,0,0
-0.22,-0.1414,0.9685,5.5038,11.7634,-0.1756,0,0,0
-0.2358,-0.1436,0.9641,7.3664,8.8855,-1.1145,0,0,0
-0.2388,-0.1321,0.9695,8.1069,8.0916,-1.916,0,0,0
-0.2292,-0.1243,0.9949,6.8168,3.6107,-0.3817,0,0,0
-0.2166,-0.1238,1.0078,3.8931,4.8473,-0.6947,0,0,0
-0.2415,-0.1177,1.0076,3.084,4.8397,0.2061,0,0,0
-0.2407,-0.1152,1.0166,0.7939,5.3206,0.2061,0,0,0
-0.2417,-0.1152,0.9995,-1.2824,5.3359,-0.9924,0,0,0
-0.2424,-0.1211,0.9878,-1.2824,4.458,-1.313,0,0,0
-0.2463,-0.1116,0.9927,-1.0153,2.4198,-1.8702,0,0,0
-0.2244,-0.1243,1.0044,-1.8702,1.9542,1.3817,0,0,0
-0.2466,-0.1228,0.9915,-1.8092,3.5725,0.8626,0,0,0
-0.2498,-0.1345,0.9927,-1.1679,1.8321,1.2366,0,0,0
-0.2344,-0.1509,1.001,-0.7481,1.0992,-0.2519,0,0,0
-0.2476,-0.1323,1.0,-2.5496,-0.7481,-1.2748,0,0,0
-0.2107,-0.1384,1.011,-5.3893,-0.7557,-0.7557,0,0,0
-0.2131,-0.1487,0.9866,-6.1603,1.1756,0.1221,0,0,0
-0.2278,-0.1458,0.9756,-2.7481,2.2748,1.6565,0,0,0
-0.2346,-0.1179,0.9849,-0.6641,3.8321,1.8626,0,0,0
-0.2571,-0.1172,0.9832,0.9008,4.542,1.2214,0,0,0
-0.2515,-0.1025,0.9756,0.7786,2.5878,0.6031,0,0,0
-0.2478,-0.1191,0.9934,-0.8397,0.9389,-1.4809,0,0,0
-0.2329,-0.1262,0.9875,-2.542,0.8702,-1.1298,0,0,0
-0.2302,-0.1326,0.9895,-2.8779,1.3053,-0.3893,0,0,0
-0.2334,-0.1267,0.9863,-2.313,2.5725,0.8092,0,0,0
-0.2561,-0.1157,0.9822,-1.0763,3.9237,0.1145,0,0,0
-0.2393,-0.1172,0.9851,-0.0458,4.7786,0.3588,0,0,0
-0.2505,-0.1211,0.988,0.0382,4.7863,0.4122,0,0,0
-0.2449,-0.1274,0.9768,-0.4198,2.8244,-0.4351,0,0,0
-0.2087,-0.1509,0.9988,-0.3511,4.3893,1.5573,0,0,0
-0.239,-0.137,0.9939,0.9618,5.0534,3.2901,0,0,0
-0.2383,-0.1243,1.0007,1.1374,6.1298,4.771,0,0,0
-0.2744,-0.1147,0.9932,-0.229,5.0534,4.1069,0,0,0
-0.283,-0.1082,0.9905,-0.7099,0.9618,0.9084,0,0,0
-0.2517,-0.1108,0.9939,-2.9924,-0.9542,-1.6489,0,0,0
-0.248,-0.1243,0.9866,-3.6794,-0.8931,-2.5267,0,0,0
-0.2261,-0.1289,0.98,-2.8473,-0.626,0.4122,0,0,0
-0.2505,-0.146,0.9768,-0.1756,2.4427,1.7481,0,0,0
-0.2825,-0.0969,0.9761,0.855,-0.6107,0.5725,0,0,0
-0.2646,-0.0898,0.9963,-2.3282,-3.0992,-2.374,0,0,0
-0.2412,-0.1343,0.9937,-4.084,-1.7023,-2.4427,0,0,0
-0.2561,-0.1294,0.9739,-3.9924,-2.5954,-2.4122,0,0,0
-0.2251,-0.1292,0.9912,-5.2748,-3.5802,-1.3969,0,0,0
-0.2566,-0.1326,0.9766,-5.5344,-3.1756,-1.229,0,0,0
-0.2664,-0.1182,0.9756,-4.3282,-5.0687,-2.5344,0,0,0
-0.2678,-0.106,0.9692,-4.8397,-4.8092,-3.7786,0,0,0
-0.2947,-0.0974,0.9749,-5.7557,-7.9466,-6.2137,0,0,0
-0.2263,-0.1187,0.9946,-8.6412,-8.6718,-6.7405,0,0,0
-0.2209,-0.1577,0.9673,-8.084,-5.7939,-5.9847,0,0,0
-0.2168,-0.1689,0.9639,-4.1145,-5.8855,-3.2061,0,0,0
-0.2244,-0.1426,0.9712,-1.0,-5.2595,-2.6031,0,0,0
-0.2229,-0.1418,0.9985,-0.6031,-4.771,-0.7557,0,0,0
-0.2539,-0.1372,0.989,-0.4275,-4.0992,-2.5878,0,0,0
-0.251,-0.1301,1.0002,-0.8397,-5.0382,-2.1145,0,0,0
-0.2534,-0.1226,1.0007,-3.0763,-5.6183,-3.8702,0,0,0
-0.2026,-0.1316,1.0122,-6.0229,-5.8321,-1.9084,0,0,0
-0.2195,-0.1497,0.9707,-4.9924,-1.7023,-0.542,0,0,0
-0.2205,-0.1504,0.96,0.0992,-1.5954,0.2443,0,0,0
-0.2283,-0.1233,0.9797,2.6641,-0.3053,1.1145,0,0,0
-0.2529,-0.116,0.9827,3.7481,-1.5115,1.3435,0,0,0
-0.2434,-0.1008,1.012,1.6336,-3.3053,-0.8473,0,0,0
-0.2397,-0.1128,1.019,-1.7328,-1.5725,-0.5802,0,0,0
-0.2371,-0.1343,1.0017,-3.3969,-1.9084,-0.9237,0,0,0
-0.2275,-0.1365,0.9941,-3.1679,-0.6641,-0.4962,0,0,0
-0.2397,-0.1326,0.9851,-1.4198,-0.1527,0.3435,0,0,0
-0.2307,-0.1323,0.9885,0.3511,-0.3969,1.0687,0,0,0
-0.2375,-0.1357,0.99,1.2214,0.9695,1.2977,0,0,0
-0.2705,-0.1108,0.99,0.8931,-2.7481,-1.2443,0,0,0
-0.2332,-0.1165,1.0205,-2.9084,-5.3817,-3.6107,0,0,0
-0.2273,-0.1301,1.0142,-6.2443,-3.5344,-3.6031,0,0,0
-0.2383,-0.1331,0.9858,-6.6947,-3.1221,-4.1603,0,0,0
-0.2065,-0.1355,0.9746,-5.4733,-2.313,-3.8855,0,0,0
-0.2034,-0.1536,0.967,-2.1832,0.5573,-0.7023,0,0,0
-0.2209,-0.1531,0.9561,2.5649,2.4122,1.4885,0,0,0
-0.2349,-0.1284,0.9785,5.7176,1.0076,2.4198,0,0,0
-0.228,-0.1216,1.0107,4.6565,1.4885,3.0992,0,0,0
-0.2715,-0.1125,0.9954,2.2672,-1.4046,1.374,0,0,0
-0.2581,-0.1052,1.0137,-1.4427,-5.771,-2.1756,0,0,0
-0.249,-0.1118,1.0168,-6.1527,-7.6107,-4.9237,0,0,0
-0.2493,-0.1257,0.9917,-8.3893,-9.7939,-7.2366,0,0,0
-0.2009,-0.135,1.009,-9.7557,-10.0382,-6.4962,0,0,0
-0.2141,-0.1335,0.98,-8.3053,-6.9313,-4.8321,0,0,0
-0.1958,-0.1443,0.9844,-4.9618,-4.3588,-1.5802,0,0,0
-0.2239,-0.1377,0.9617,-0.8015,-0.2366,0.2824,0,0,0
-0.2349,-0.1392,0.9766,2.4504,-0.5496,-0.2366,0,0,0
-0.2434,-0.1194,0.9868,3.4275,-2.5725,-1.5267,0,0,0
-0.2234,-0.1284,1.0073,1.0992,-4.5802,-2.6718,0,0,0
-0.2217,-0.1367,1.0181,-1.4733,-6.0382,-1.855,0,0,0
-0.1877,-0.1433,1.0327,-3.7176,-2.374,0.5649,0,0,0
-0.2366,-0.1375,1.002,-3.8168,-0.7481,1.9924,0,0,0
-0.2251,-0.1311,0.9932,-3.8855,-1.3435,1.4351,0,0,0
-0.2107,-0.1318,0.9839,-3.9389,-0.8931,0.5802,0,0,0
-0.2214,-0.1387,0.9612,-2.5954,-1.2061,0.687,0,0,0
-0.2261,-0.137,0.9734,-0.8244,-3.916,0.9924,0,0,0
-0.2021,-0.134,1.0059,-0.4885,-4.2214,1.8626,0,0,0
-0.2231,-0.1306,1.0139,-0.9695,-2.0611,1.6489,0,0,0
-0.2224,-0.1345,1.0161,-0.9008,-1.2137,2.5115,0,0,0
-0.2187,-0.1213,1.0142,-1.3893,2.1145,1.9313,0,0,0
-0.2178,-0.1235,0.9924,-2.0763,3.3588,2.5191,0,0,0
-0.2344,-0.1252,0.9663,-0.458,3.3359,2.1298,0,0,0
-0.2412,-0.126,0.9626,2.5573,-1.1145,0.5344,0,0,0
-0.2366,-0.1184,0.9937,2.2137,-2.2137,-0.9771,0,0,0
-0.2437,-0.1187,1.0146,0.4275,-4.313,-2.7176,0,0,0
-0.2131,-0.1196,1.0342,-2.626,-4.1832,-2.9695,0,0,0
-0.2063,-0.1294,1.0269,-5.1069,-0.5649,-1.5267,0,0,0
-0.2021,-0.1399,1.0012,-6.4962,-0.3053,0.5878,0,0,0
-0.2083,-0.1487,0.9763,-4.4046,2.1069,1.6489,0,0,0
-0.2244,-0.1355,0.9521,-1.374,-0.2366,1.6794,0,0,0
-0.2234,-0.1353,0.9756,1.313,-0.6565,1.1069,0,0,0
-0.2366,-0.1321,0.9861,2.1985,-2.4656,-0.0763,0,0,0
-0.2419,-0.1194,1.0,0.6412,-4.8015,-2.2443,0,0,0
-0.2124,-0.127,1.0303,-2.0305,-4.0458,-1.9008,0,0,0
-0.2214,-0.127,1.0239,-5.2824,-2.7481,-0.3359,0,0,0
-0.2268,-0.125,1.0044,-6.5725,-3.145,-1.771,0,0,0
-0.2063,-0.1421,0.9846,-6.5573,-2.8092,-0.9618,0,0,0
-0.218,-0.135,0.957,-3.9542,-1.6718,-0.7863,0,0,0
-0.2373,-0.1292,0.9634,-1.2901,-4.8015,-2.3359,0,0,0
-0.2388,-0.1296,0.9824,-0.2977,-7.771,-4.9237,0,0,0
-0.2017,-0.1194,1.0117,-1.9466,-8.5191,-4.7786,0,0,0
-0.2241,-0.1155,1.0051,-4.7176,-6.6718,-3.8244,0,0,0
-0.1797,-0.1357,1.0017,-6.5802,-5.4351,-2.9771,0,0,0
-0.2009,-0.1509,0.9731,-5.1908,-2.1603,-0.9924,0,0,0
-0.1992,-0.1553,0.9595,-0.2977,-2.6412,-0.229,0,0,0
-0.2197,-0.1497,0.9783,3.9924,-2.916,0.4656,0,0,0
-0.2083,-0.1304,1.0317,3.1145,-4.7328,-0.0763,0,0,0
-0.2046,-0.1245,1.0352,-0.0992,-1.8015,-0.2672,0,0,0
-0.2097,-0.1375,1.022,-2.6107,-1.542,0.7328,0,0,0
-0.208,-0.1262,1.0078,-3.9389,-0.6947,0.4122,0,0,0
-0.2249,-0.1206,0.9873,-3.5878,-1.9008,-0.9389,0,0,0
-0.2141,-0.1284,0.9868,-2.8931,-2.3969,-1.6641,0,0,0
-0.22,-0.1243,0.9856,-0.7557,-2.3969,-2.458,0,0,0
-0.1921,-0.1333,1.0149,0.2137,-2.2443,-1.1145,0,0,0
-0.156,-0.1379,1.0217,-1.7481,3.4122,3.0153,0,0,0
-0.2053,-0.1426,0.9822,-1.458,7.3282,4.8626,0,0,0
-0.2251,-0.1399,0.96,2.2137,4.0611,3.3969,0,0,0
-0.2256,-0.1277,0.9802,3.9847,1.8626,2.8321,0,0,0
-0.2417,-0.1179,1.0061,3.687,0.0992,1.542,0,0,0
-0.2517,-0.1121,1.0251,1.1527,-3.3817,-1.2977,0,0,0
-0.2061,-0.1157,1.0471,-4.1374,-3.8855,-3.2214,0,0,0
-0.2134,-0.1377,1.0186,-6.3664,-0.7557,-3.1069,0,0,0
-0.1875,-0.1379,0.9905,-5.7252,-1.6565,-1.3588,0,0,0
-0.1978,-0.1399,0.9788,-4.2137,0.0153,0.1985,0,0,0
-0.2146,-0.1304,0.9629,-2.2214,-1.4656,-0.0916,0,0,0
-0.2063,-0.1257,0.9888,-0.7481,-1.3435,-0.3206,0,0,0
-0.2051,-0.1335,1.0005,0.2748,1.5878,0.3588,0,0,0
-0.22,-0.1328,0.9888,1.313,1.4885,-0.4046,0,0,0
-0.208,-0.1321,0.998,0.8168,-0.3206,-0.4504,0,0,0
-0.2019,-0.1255,1.0071,-0.0763,0.374,-0.3435,0,0,0
-0.2124,-0.1289,1.0183,-0.9237,-0.2061,1.5954,0,0,0
-0.2009,-0.1199,1.0127,-2.1756,1.5191,2.2901,0,0,0
-0.2056,-0.1279,1.0103,-2.4733,3.8244,3.3969,0,0,0
-0.2268,-0.1277,0.9858,-0.2519,6.5496,3.9084,0,0,0
-0.228,-0.1165,0.9775,0.4809,4.5573,2.9847,0,0,0
-0.2261,-0.1216,0.9775,0.8244,3.626,0.5038,0,0,0
-0.2268,-0.1387,0.9915,1.542,1.855,-0.5573,0,0,0
-0.2019,-0.1328,1.0024,0.7023,2.2214,-0.6641,0,0,0
-0.1921,-0.1372,1.0054,-0.9008,4.0305,1.9237,0,0,0
-0.2124,-0.1309,0.9871,-1.5649,4.7557,2.5954,0,0,0
-0.228,-0.1262,0.9744,-0.5954,4.2901,3.3435,0,0,0
-0.2324,-0.1211,0.9766,0.5191,1.6336,1.8168,0,0,0
-0.2251,-0.1321,0.9949,1.1832,0.7557,0.8931,0,0,0
-0.2349,-0.1174,0.9988,0.4885,-1.4962,0.0305,0,0,0
-0.2271,-0.1128,1.0088,-1.2519,-2.6794,-1.2748,0,0,0
-0.2085,-0.136,1.0242,-2.5191,-1.8168,-1.0458,0,0,0
-0.2351,-0.1265,1.0229,-2.1374,0.8244,-0.8473,0,0,0
-0.2114,-0.1001,1.0188,-3.2595,-0.0763,-1.6107,0,0,0
-0.2034,-0.1211,0.9998,-4.7252,4.1679,0.2824,0,0,0
-0.22,-0.1292,0.9731,-2.2672,3.855,0.6947,0,0,0
-0.2224,-0.1223,0.9719,0.7405,4.8931,2.4427,0,0,0
-0.248,-0.1169,0.9927,0.9389,2.9618,1.9466,0,0,0
-0.2263,-0.1182,1.011,-1.0458,2.5649,0.8702,0,0,0
-0.2285,-0.1213,1.0115,-3.0076,2.916,1.0534,0,0,0
-0.2332,-0.125,0.9912,-3.4885,1.5649,-0.9542,0,0,0
-0.2048,-0.136,0.9995,-3.7786,1.8931,-0.3053,0,0,0
-0.2227,-0.1338,0.9849,-1.9389,3.3511,-0.2214,0,0,0
-0.2246,-0.1331,0.9849,-0.9084,4.1603,1.1527,0,0,0
-0.2532,-0.1223,0.9805,-0.2901,1.855,-0.3969,0,0,0
-0.2104,-0.1194,0.9988,-1.4656,0.145,-0.8702,0,0,0
-0.1946,-0.1401,0.9878,-2.0687,3.3359,1.3664,0,0,0
-0.2168,-0.1384,0.9778,0.3435,4.9847,4.084,0,0,0
-0.2366,-0.1289,0.9824,3.2519,4.542,4.3817,0,0,0
-0.2344,-0.1177,0.9993,2.855,4.0,4.1527,0,0,0
-0.2263,-0.1072,1.0059,0.6794,4.4733,3.6718,0,0,0
-0.2422,-0.1565,1.0156,0.6031,6.4504,5.2443,0,0,0
-0.26,-0.1069,1.0083,-1.9542,2.6031,2.1908,0,0,0
-0.2485,-0.1018,0.9797,-6.6565,-0.5954,-1.2901,0,0,0
-0.2307,-0.1326,0.9722,-5.8092,-1.6336,-2.0687,0,0,0
-0.2087,-0.1304,0.9792,-2.2977,0.1374,0.3817,0,0,0
-0.2124,-0.1394,0.9844,-0.1527,3.7023,3.0076,0,0,0
-0.2439,-0.0974,0.9705,-0.0229,1.8321,2.1374,0,0,0
-0.2332,-0.0986,0.9783,-1.5038,1.0992,3.6489,0,0,0
-0.238,-0.1255,0.9714,-0.145,1.8626,3.2977,0,0,0
-0.2312,-0.1206,0.9932,2.9389,3.2443,4.9542,0,0,0
-0.2556,-0.0974,0.9871,2.3511,4.5878,4.1985,0,0,0
-0.2615,-0.0967,0.9871,0.7023,2.916,1.8473,0,0,0
-0.248,-0.1328,1.0078,0.2137,1.6183,1.0,0,0,0
-0.2537,-0.0984,1.0037,-2.5954,-1.9695,-1.7328,0,0,0
-0.2507,-0.1191,0.9993,-5.3664,-4.084,-4.3817,0,0,0
-0.2312,-0.1292,0.999,-3.6718,-6.5725,-4.4275,0,0,0
-0.1936,-0.1216,1.0312,-3.0153,-3.2214,-2.0382,0,0,0
-0.1946,-0.1218,1.0435,-3.0305,4.5115,3.7023,0,0,0
-0.2688,-0.1055,0.9817,-1.8626,7.2214,4.8015,0,0,0
-0.272,-0.0928,0.9785,-1.542,2.6794,1.5115,0,0,0
-0.2261,-0.1038,1.0,-2.8168,1.2061,0.4275,0,0,0
-0.2295,-0.1201,0.9849,-2.6718,4.8855,2.1603,0,0,0
-0.2661,-0.1147,0.9661,-0.229,2.6489,0.5191,0,0,0
-0.2397,-0.1094,0.9932,-0.3206,0.5573,0.3053,0,0,0
-0.2461,-0.1018,0.9941,-2.0992,2.0763,-0.6412,0,0,0
-0.2412,-0.1201,0.989,-3.0076,2.9237,-0.6031,0,0,0
-0.2549,-0.123,0.9673,-2.1527,1.0153,-1.3435,0,0,0
-0.2227,-0.125,0.9839,-2.2824,0.8931,-0.313,0,0,0
-0.2327,-0.1262,0.9705,-2.1298,1.7557,0.1221,0,0,0
-0.2317,-0.1433,0.9712,-0.0534,2.0687,1.3588,0,0,0
-0.2363,-0.1443,0.9744,3.3206,3.0,3.0229,0,0,0
-0.2515,-0.127,0.9973,5.1603,3.0611,3.4504,0,0,0
-0.2324,-0.1147,1.0339,2.2672,5.4733,4.8321,0,0,0
-0.2854,-0.1062,1.0059,-0.1908,5.6336,3.0305,0,0,0
-0.2734,-0.105,1.0046,-2.5496,1.8092,0.9771,0,0,0
-0.2634,-0.094,0.9832,-4.8092,0.0153,-1.1756,0,0,0
-0.2581,-0.1409,0.9902,-5.374,-1.7328,-1.9389,0,0,0
-0.2427,-0.0872,0.9839,-7.4427,-3.6489,-2.4122,0,0,0
-0.2444,-0.123,0.959,-7.1832,-1.4733,-3.0305,0,0,0
-0.2393,-0.1243,0.9561,-1.1985,-2.1298,-1.2977,0,0,0
-0.188,-0.1128,0.9963,0.8779,3.687,3.5573,0,0,0
-0.2551,-0.1094,0.9597,1.687,7.1145,5.8855,0,0,0
-0.2742,-0.1162,0.9543,4.2137,2.4962,3.5802,0,0,0
-0.2468,-0.115,1.0002,5.0992,1.2748,2.916,0,0,0
-0.2603,-0.105,1.021,3.9618,3.855,3.3053,0,0,0
-0.282,-0.093,1.0271,2.0076,4.0305,1.3282,0,0,0
-0.2612,-0.1008,1.03,-1.8397,2.2595,-0.4733,0,0,0
-0.26,-0.1069,1.0129,-5.0305,2.8931,0.0458,0,0,0
-0.2708,-0.116,0.9795,-5.6565,0.8397,-1.2748,0,0,0
-0.2615,-0.1155,0.9673,-5.8168,-2.7023,-3.2137,0,0,0
-0.2405,-0.1333,0.9795,-4.6489,-2.4351,-2.8779,0,0,0
-0.2427,-0.1184,0.9812,-1.8473,-0.6107,-1.2061,0,0,0
-0.2275,-0.1196,0.9961,-0.8168,2.3435,1.9466,0,0,0
-0.2327,-0.1125,0.9912,-0.0611,6.8244,4.2977,0,0,0
-0.2739,-0.1174,0.9622,2.0153,7.4809,4.5954,0,0,0
-0.28,-0.1079,0.9722,3.2214,3.2061,2.4885,0,0,0
-0.2761,-0.0918,0.9893,1.4122,0.5038,0.2901,0,0,0
-0.2681,-0.0967,0.9958,-2.2061,-1.4275,-2.0992,0,0,0
-0.2314,-0.124,1.0068,-4.4962,-0.0687,-0.1221,0,0,0
-0.2581,-0.1201,0.9736,-2.9695,0.9008,0.5649,0,0,0
-0.2646,-0.1047,0.9797,-1.687,-1.1298,0.7634,0,0,0
-0.2498,-0.1006,0.9902,-1.6718,1.1679,0.6107,0,0,0
-0.2698,-0.1067,0.9851,-0.3359,2.626,1.084,0,0,0
-0.2864,-0.1035,0.979,0.8168,1.1527,-0.313,0,0,0
-0.261,-0.085,0.9844,0.771,2.4885,0.4504,0,0,0
-0.2554,-0.1128,0.9973,0.145,4.5267,1.5954,0,0,0
-0.2678,-0.1123,0.9836,1.1221,4.1069,0.7863,0,0,0
-0.2725,-0.1072,0.9795,0.4962,2.0076,-0.0305,0,0,0
-0.2729,-0.1082,0.9878,-0.5191,0.5115,-1.6947,0,0,0
-0.2434,-0.1138,0.9968,-1.0611,-0.1985,-1.229,0,0,0
-0.241,-0.1047,0.9912,-2.1756,1.8702,1.6718,0,0,0
-0.2507,-0.116,0.9785,-2.3969,3.4351,3.542,0,0,0
-0.2825,-0.115,0.9595,-1.771,1.4351,3.1603,0,0,0
-0.2717,-0.1162,0.968,-0.4885,-1.4046,1.0229,0,0,0
-0.2585,-0.1233,0.9956,0.3893,-1.6183,0.9847,0,0,0
-0.2708,-0.1052,0.9976,0.1145,-0.2366,0.458,0,0,0
-0.261,-0.0935,1.0134,-0.7405,0.8092,0.2595,0,0,0
-0.2688,-0.0842,1.0076,-3.2901,3.3664,0.7634,0,0,0
-0.2781,-0.0979,0.9746,-3.9847,3.4427,-0.5802,0,0,0
-0.2656,-0.1106,0.9724,-3.6718,1.3206,-0.1756,0,0,0
-0.2725,-0.1182,0.9744,-2.2595,1.9695,-1.1069,0,0,0
-0.262,-0.0991,1.0022,-1.7099,2.0305,-0.313,0,0,0
-0.2539,-0.1084,1.0061,-2.8626,3.9389,0.4809,0,0,0
-0.2852,-0.1011,0.9841,-3.374,4.5038,0.2366,0,0,0
-0.2813,-0.0898,0.9707,-4.5954,1.7405,-1.626,0,0,0
-0.2668,-0.0935,0.9719,-5.7557,2.5802,-1.6641,0,0,0
-0.272,-0.1145,0.9473,-3.9618,2.4733,-2.1985,0,0,0
-0.2625,-0.126,0.97,-0.4122,2.8015,-1.0153,0,0,0
-0.2583,-0.1228,0.9878,1.855,3.8779,0.2519,0,0,0
-0.2646,-0.1104,1.0044,1.3359,4.5115,1.2443,0,0,0
-0.2708,-0.1174,1.0034,-1.7863,4.458,1.4351,0,0,0
-0.2803,-0.1255,0.9832,-2.8244,2.5191,1.1069,0,0,0
-0.28,-0.114,1.0015,-2.2748,1.8855,0.1069,0,0,0
-0.2729,-0.0999,1.0085,-2.5725,4.6183,-0.4809,0,0,0
-0.2715,-0.1099,0.9973,-1.9008,6.9847,0.1221,0,0,0
-0.2732,-0.1001,0.9878,-2.3206,9.8473,1.313,0,0,0
-0.3086,-0.1033,0.9609,-1.1145,7.5191,-0.4656,0,0,0
-0.2654,-0.0898,0.9729,-1.8168,5.1527,0.0,0,0,0
-0.2637,-0.1025,0.9653,-1.8779,6.6794,0.7557,0,0,0
-0.2734,-0.1653,0.9993,0.9771,8.5496,3.2672,0,0,0
-0.2483,-0.1121,1.02,-0.4504,10.2214,6.2519,0,0,0
-0.2869,-0.0952,0.9841,-3.7176,12.7786,5.8779,0,0,0
-0.312,-0.1287,0.9624,-1.9084,9.9618,4.3969,0,0,0
-0.2849,-0.1091,0.9907,-0.3588,7.7634,4.8931,0,0,0
-0.2837,-0.0906,0.99,-3.4656,9.687,4.458,0,0,0
-0.3201,-0.1069,0.96,-4.0611,9.4046,4.3969,0,0,0
-0.3269,-0.0981,0.9436,-0.9542,6.8626,2.374,0,0,0
-0.2993,-0.0732,0.9712,-1.2443,5.8702,2.5954,0,0,0
-0.3132,-0.0894,0.9644,-2.3435,7.5649,0.5878,0,0,0
-0.3066,-0.105,0.9604,-1.3435,5.771,0.1908,0,0,0
-0.3096,-0.0945,0.9668,-1.9466,4.1069,-0.5725,0,0,0
-0.303,-0.0933,0.9639,-3.3664,2.1985,-2.2748,0,0,0
-0.2773,-0.1096,0.9751,-3.855,3.145,-0.2061,0,0,0
-0.2871,-0.1221,0.9541,-2.0763,4.8626,1.1145,0,0,0
-0.2971,-0.1213,0.9687,1.3893,5.0687,1.8321,0,0,0
-0.29,-0.1108,0.9895,3.5496,8.0382,4.9008,0,0,0
-0.322,-0.0896,0.9895,4.4198,10.9847,4.9389,0,0,0
-0.3386,-0.0793,0.9731,1.9084,7.2824,2.4427,0,0,0
-0.3291,-0.0789,0.9956,-1.6794,4.9237,0.0763,0,0,0
-0.3025,-0.1033,0.9956,-3.7176,5.5115,0.1221,0,0,0
-0.3083,-0.1182,0.9817,-3.1603,8.1298,1.5038,0,0,0
-0.3206,-0.1064,0.9626,-1.6183,8.9618,2.7328,0,0,0
-0.3293,-0.0945,0.9585,-1.2977,7.7023,1.2977,0,0,0
-0.3308,-0.1296,0.9761,-2.6336,5.1069,0.3588,0,0,0
-0.3406,-0.1255,0.9731,-1.0916,2.8702,-1.7939,0,0,0
-0.2932,-0.0837,1.0005,-4.8931,4.2214,-1.3282,0,0,0
-0.3108,-0.1062,0.9619,-5.9389,8.0153,-0.8092,0,0,0
-0.2976,-0.1218,0.9402,-2.1145,9.2595,1.3282,0,0,0
-0.2971,-0.1382,0.9592,3.1908,13.0763,4.0229,0,0,0
-0.3132,-0.1074,0.9609,5.9466,13.9542,6.1298,0,0,0
-0.3381,-0.0908,0.9634,4.2672,12.5725,6.3969,0,0,0
-0.344,-0.0903,0.9573,2.6947,9.855,5.5649,0,0,0
-0.3516,-0.1194,1.0078,3.0611,8.7328,5.229,0,0,0
-0.3511,-0.0686,1.0059,-0.6947,10.084,3.0305,0,0,0
-0.3411,-0.0845,1.0039,-2.8626,13.5725,2.8855,0,0,0
-0.3555,-0.0964,0.9717,-1.5115,18.7099,2.4046,0,0,0
-0.3308,-0.0884,0.9485,1.4275,20.4046,3.374,0,0,0
-0.3088,-0.0986,0.9436,4.1374,23.229,7.7557,0,0,0
-0.3616,-0.0767,0.9324,4.4885,22.1985,7.8702,0,0,0
-0.355,-0.0942,0.947,5.7939,16.5725,6.9008,0,0,0
-0.3496,-0.0952,0.9609,4.1603,16.5573,7.9924,0,0,0
-0.3965,-0.0662,0.948,3.5344,13.9466,5.8702,0,0,0
-0.3928,-0.0403,0.958,0.0763,9.8931,2.0992,0,0,0
-0.3943,-0.0813,0.97,-3.1145,9.0687,-2.1603,0,0,0
-0.3818,-0.0896,0.9685,-3.1756,9.0763,-2.8244,0,0,0
-0.3733,-0.094,0.9553,-3.0458,8.7481,-3.0611,0,0,0
-0.3496,-0.0869,0.9546,-2.8702,9.1527,-2.4198,0,0,0
-0.3499,-0.0742,0.9473,-5.2977,11.0992,-0.5954,0,0,0
-0.3838,-0.0889,0.9165,-4.3511,9.5344,0.374,0,0,0
-0.373,-0.0847,0.9126,-2.9008,5.7634,-0.3359,0,0,0
-0.365,-0.1123,0.938,-1.3359,6.6336,0.9389,0,0,0
-0.3909,-0.1025,0.925,1.1069,8.145,1.3053,0,0,0
-0.3896,-0.0786,0.9556,1.5344,6.8321,-0.0458,0,0,0
-0.356,-0.0996,0.9766,-0.2519,10.1298,1.4656,0,0,0
-0.3872,-0.0957,0.9475,-0.1374,12.9313,1.1069,0,0,0
-0.3596,-0.0959,0.9429,-0.5878,12.8702,2.4351,0,0,0
-0.3994,-0.0845,0.9163,-0.4885,12.1298,3.0916,0,0,0
-0.4177,-0.0789,0.9111,-1.2137,5.1985,1.1985,0,0,0
-0.4165,-0.0664,0.9167,-3.8168,-1.6947,-1.1221,0,0,0
-0.3987,-0.0796,0.9175,-6.1221,-4.229,-4.1374,0,0,0
-0.3469,-0.0896,0.9397,-6.2824,-1.9847,-3.0611,0,0,0
-0.3364,-0.1152,0.9285,-3.2824,6.5878,3.6489,0,0,0
-0.3882,-0.1135,0.9255,3.8473,12.3969,7.6718,0,0,0
-0.4255,-0.0789,0.9365,8.2977,12.6565,8.0916,0,0,0
-0.4058,-0.0854,0.9741,8.6794,11.3206,6.771,0,0,0
-0.4194,-0.0684,0.9924,5.5878,11.8779,4.1221,0,0,0
-0.418,-0.0652,0.9836,1.8244,10.5038,1.4427,0,0,0
-0.4219,-0.0493,0.9717,-1.8473,8.7557,-0.3817,0,0,0
-0.4099,-0.0647,0.9543,-5.0611,7.1527,-2.6718,0,0,0
-0.4136,-0.0657,0.9194,-8.4885,4.5573,-4.2366,0,0,0
-0.3848,-0.1008,0.9065,-7.4885,2.9008,-5.1603,0,0,0
-0.3718,-0.0947,0.8799,-6.7023,0.5038,-3.5954,0,0,0
-0.3787,-0.1101,0.8855,-2.3359,0.5954,-1.3817,0,0,0
-0.3652,-0.0928,0.9092,2.2061,1.374,3.0305,0,0,0
-0.4021,-0.0706,0.9172,4.0916,6.2672,5.6641,0,0,0
-0.4524,-0.053,0.9126,3.9695,3.7939,2.8092,0,0,0
-0.4355,-0.063,0.9482,2.0916,0.0458,-0.1527,0,0,0
-0.4326,-0.0618,0.9675,-0.9542,-0.3053,-3.0076,0,0,0
-0.4097,-0.0674,0.981,-3.374,1.0229,-2.6718,0,0,0
-0.4214,-0.0791,0.9485,-5.7176,3.6183,-3.5115,0,0,0
-0.426,-0.095,0.9204,-5.7176,0.9389,-4.8779,0,0,0
-0.4011,-0.0896,0.9177,-5.8779,-2.0992,-4.5115,0,0,0
-0.3992,-0.0974,0.9109,-5.9771,-3.4809,-4.3359,0,0,0
-0.3853,-0.1062,0.9009,-5.542,-4.1603,-3.4885,0,0,0
-0.3931,-0.1191,0.8965,-2.542,-4.4962,-2.5344,0,0,0
-0.3909,-0.105,0.9136,0.8092,-4.0763,-1.2061,0,0,0
-0.3889,-0.083,0.9355,0.5191,-4.4504,-0.6107,0,0,0
-0.4136,-0.0774,0.9263,-1.2901,-6.0229,-2.2595,0,0,0
-0.4004,-0.0774,0.9363,-2.8931,-8.0611,-2.4733,0,0,0
-0.4146,-0.0754,0.9414,-3.9084,-8.626,-4.2672,0,0,0
-0.3982,-0.0869,0.9473,-3.4504,-8.771,-3.5115,0,0,0
-0.4226,-0.0581,0.9387,-2.3359,-6.6107,-3.3359,0,0,0
-0.4592,-0.0349,0.9236,-3.4504,-9.7863,-7.5954,0,0,0
-0.4307,-0.0405,0.9441,-5.916,-14.7863,-12.1603,0,0,0
-0.3911,-0.0745,0.9436,-7.1374,-12.542,-12.6947,0,0,0
-0.4016,-0.1008,0.9297,-5.1832,-12.458,-13.8397,0,0,0
-0.3689,-0.104,0.9441,-3.458,-13.9237,-13.6794,0,0,0
-0.3667,-0.0879,0.957,-3.8473,-10.8168,-12.2519,0,0,0
-0.3848,-0.0796,0.9395,-2.9924,-7.7252,-10.9695,0,0,0
-0.3994,-0.0786,0.9341,-0.1908,-6.0916,-13.0916,0,0,0
-0.3765,-0.0847,0.9463,2.084,-2.7328,-13.3664,0,0,0
-0.3953,-0.0586,0.9358,2.5191,-2.5267,-13.8092,0,0,0
-0.3774,-0.0879,0.9492,1.4656,-2.9313,-11.8092,0,0,0
-0.3918,-0.0977,0.9333,2.0534,-2.7939,-13.1221,0,0,0
-0.3933,-0.0989,0.9385,3.2214,-5.7481,-13.9084,0,0,0
-0.3811,-0.094,0.9565,3.855,-7.9466,-16.084,0,0,0
-0.3818,-0.0886,0.9641,1.855,-7.1679,-15.855,0,0,0
-0.394,-0.0845,0.9729,0.4656,-8.3893,-16.2061,0,0,0
-0.3984,-0.0872,0.9583,-2.6565,-10.6412,-19.2366,0,0,0
-0.4111,-0.0674,0.9211,-5.1145,-15.3664,-26.2977,0,0,0
-0.387,-0.0793,0.9041,-5.0076,-19.0382,-32.7634,0,0,0
-0.3062,-0.1001,0.9097,-2.4122,-16.9924,-35.1145,0,0,0
-0.2722,-0.134,0.8997,4.2748,-6.916,-27.6031,0,0,0
-0.2813,-0.1775,0.8845,15.9237,4.9313,-14.8855,0,0,0
-0.2969,-0.1313,0.9194,24.6641,13.0611,-6.7023,0,0,0
-0.3809,-0.1062,0.9331,24.6794,10.3435,-7.3969,0,0,0
-0.4666,-0.0605,0.9536,21.8855,-0.1221,-13.4046,0,0,0
-0.4807,-0.0471,1.0107,18.9466,-10.5649,-25.4122,0,0,0
-0.5078,-0.0513,0.8677,35.229,-32.6565,-32.145,0,0,0
-0.3113,-0.0977,1.0291,36.0458,-30.8473,-40.0763,0,0,0
-0.3364,-0.0454,1.0237,27.2901,-23.0687,-41.626,0,0,0
-0.3208,-0.0156,1.0593,14.3588,-18.5954,-43.687,0,0,0
-0.342,-0.0945,1.0002,6.771,-16.5114,-43.8626,0,0,0
-0.3252,-0.1638,0.9182,20.1679,-18.2137,-37.9618,0,0,0
-0.2026,-0.1465,0.9324,37.4275,-2.7939,-21.229,0,0,0
-0.2336,-0.0903,0.9607,37.313,9.084,-18.3969,0,0,0
-0.292,-0.1179,1.0386,27.5496,4.4809,-13.8626,0,0,0
-0.3269,-0.0518,1.0007,20.0229,3.0916,-10.3817,0,0,0
-0.3428,-0.0564,0.9849,14.6183,0.1908,-14.3206,0,0,0
-0.3779,-0.0488,0.9668,11.5954,-5.5954,-17.7176,0,0,0
-0.3379,-0.0376,1.0051,8.5115,-8.2061,-18.0,0,0,0
-0.3015,-0.0403,1.0317,1.5878,-1.4198,-17.1374,0,0,0
-0.2859,-0.0669,0.9927,-3.8931,5.5038,-13.2443,0,0,0
-0.3401,-0.0854,0.9255,-1.9847,6.5267,-12.7176,0,0,0
-0.3635,-0.1052,0.907,4.0763,-1.2214,-14.4122,0,0,0
-0.3147,-0.1174,0.9275,12.0458,-6.4809,-12.0076,0,0,0
-0.2815,-0.1064,0.9587,17.6718,-3.6107,-7.5344,0,0,0
-0.3037,-0.0894,1.0059,19.1908,2.8779,-4.374,0,0,0
-0.353,-0.0327,0.999,17.771,3.9008,-3.8092,0,0,0
-0.3577,-0.0447,0.9976,15.0,5.1756,-4.0382,0,0,0
-0.3467,-0.0344,0.9922,13.8168,7.2061,-6.5649,0,0,0
-0.3176,-0.0515,0.9871,13.0458,7.5954,-6.2977,0,0,0
-0.2979,-0.0471,0.948,14.4809,9.6412,-5.6947,0,0,0
-0.3147,-0.0583,0.9417,15.8168,9.7481,-3.9008,0,0,0
-0.3586,-0.0378,0.9387,17.0916,6.1679,-2.1908,0,0,0
-0.3689,-0.021,0.9568,17.5267,2.0305,-3.4122,0,0,0
-0.3647,-0.0066,0.9766,15.8321,-0.2824,-4.3282,0,0,0
-0.3445,-0.0093,0.9841,12.9313,0.0916,-3.2061,0,0,0
-0.3225,-0.0115,0.9741,10.687,2.771,-1.3893,0,0,0
-0.3032,0.0005,0.9954,6.458,8.9237,2.7252,0,0,0
-0.3628,-0.012,0.9932,1.7557,12.9924,3.5038,0,0,0
-0.415,-0.0049,0.957,1.5802,8.4427,0.6336,0,0,0
-0.384,-0.0132,0.9795,0.7176,3.1603,-1.5038,0,0,0
-0.3328,-0.0171,0.9961,-2.3664,3.8855,-1.6412,0,0,0
-0.3374,-0.0281,0.9763,-4.6031,7.9008,-1.5115,0,0,0
-0.356,-0.0403,0.9338,-2.8244,5.9618,-1.8626,0,0,0
-0.342,-0.0415,0.9409,-0.4046,3.8015,0.3588,0,0,0
-0.3369,-0.0256,0.9709,-0.8702,3.9542,3.626,0,0,0
-0.3245,-0.0073,1.0042,-5.6336,9.0076,5.6107,0,0,0
-0.3538,-0.0134,0.9946,-12.3664,11.7863,5.8855,0,0,0
-0.3606,-0.0271,0.9714,-16.9542,10.0153,5.5954,0,0,0
-0.374,-0.032,0.9502,-17.458,6.9847,4.8321,0,0,0
-0.3752,-0.033,0.9363,-15.1603,2.1832,3.4351,0,0,0
-0.3496,-0.0339,0.9636,-13.7328,3.3664,5.8092,0,0,0
-0.377,0.0039,0.9763,-17.771,5.2366,5.626,0,0,0
-0.3997,-0.0239,0.9382,-19.6412,1.3664,4.229,0,0,0
-0.3838,-0.0313,0.9456,-18.4733,-2.8168,2.6947,0,0,0
-0.3567,-0.0364,0.9626,-17.3053,-1.9237,4.5191,0,0,0
-0.333,-0.0244,0.9683,-17.9313,3.4351,8.4962,0,0,0
-0.3845,-0.0493,0.9268,-18.687,5.1145,5.5573,0,0,0
-0.4058,-0.0698,0.8994,-13.2366,-2.9008,1.6489,0,0,0
-0.3757,-0.0615,0.9368,-8.8702,-8.1985,-0.4504,0,0,0
-0.3481,-0.054,0.9629,-8.5344,-7.4427,-0.8092,0,0,0
-0.3208,-0.0696,0.979,-7.9771,-2.2443,1.4656,0,0,0
-0.3105,-0.0771,1.0051,-9.6794,4.0458,5.1756,0,0,0
-0.3579,-0.0586,0.978,-11.0763,4.3359,8.145,0,0,0
-0.3748,-0.0391,0.9653,-13.2901,0.626,7.6489,0,0,0
-0.3804,-0.0461,0.958,-15.458,-1.9084,4.9771,0,0,0
-0.3677,-0.0625,0.9519,-15.145,-3.1679,5.1221,0,0,0
-0.3735,-0.0552,0.9519,-13.9237,-2.4198,5.3588,0,0,0
-0.3511,-0.0491,0.947,-13.2519,-1.771,7.8244,0,0,0
-0.374,-0.0588,0.9226,-13.0916,-1.5954,6.9618,0,0,0
-0.3884,-0.0603,0.9026,-9.3206,-5.9008,4.7557,0,0,0
-0.3628,-0.0547,0.927,-6.4656,-7.5344,3.9237,0,0,0
-0.3555,-0.0654,0.9299,-3.7863,-5.0,2.5496,0,0,0
-0.3643,-0.0625,0.9382,-1.8244,-3.7863,1.5573,0,0,0
-0.3892,-0.0632,0.9304,0.6641,-5.5496,0.1145,0,0,0
-0.3579,-0.0474,0.968,-1.0382,-9.229,1.4733,0,0,0
-0.3562,-0.0576,0.9834,-3.8855,-7.6641,1.7939,0,0,0
-0.3577,-0.0569,0.9729,-4.6107,-6.1069,1.6641,0,0,0
-0.3577,-0.0632,0.9727,-5.8092,-6.084,1.1679,0,0,0
-0.3621,-0.0649,0.9541,-5.7099,-8.0382,-0.3893,0,0,0
-0.3411,-0.0654,0.9641,-5.1374,-7.5649,-0.7176,0,0,0
-0.3479,-0.0728,0.9524,-3.0534,-3.6107,-0.9389,0,0,0
-0.3774,-0.0657,0.9358,0.8397,-3.1756,-1.1908,0,0,0
-0.3726,-0.043,0.957,2.2366,-5.6412,-3.5115,0,0,0
-0.3601,-0.0474,0.9634,0.0305,-6.313,-4.9542,0,0,0
-0.3416,-0.0618,0.9792,-1.2061,-5.0763,-4.855,0,0,0
-0.2952,-0.0679,0.9946,-3.6718,0.2443,-1.0611,0,0,0
-0.3479,-0.0771,0.9551,-2.771,4.6718,0.6107,0,0,0
-0.3745,-0.0603,0.9248,-0.5115,-0.0153,-0.8321,0,0,0
-0.3533,-0.0576,0.9568,0.4046,-2.9618,-1.4275,0,0,0
-0.3445,-0.0562,0.9805,-1.4351,-0.7557,-0.374,0,0,0
-0.3762,-0.0662,0.9551,-1.6412,0.458,-1.4809,0,0,0
-0.384,-0.0618,0.9417,-1.6412,-3.7023,-3.9313,0,0,0
-0.3528,-0.0579,0.9712,-2.0458,-6.687,-6.1221,0,0,0
-0.2927,-0.0591,0.9907,-4.9924,-0.4046,-1.7863,0,0,0
-0.3474,-0.0911,0.9292,-3.3664,5.5878,-0.4275,0,0,0
-0.3713,-0.0952,0.9075,2.084,-0.5649,-1.313,0,0,0
-0.3467,-0.0793,0.946,4.6718,-4.626,-2.4198,0,0,0
-0.3496,-0.0808,0.9929,5.0992,-3.229,-2.6489,0,0,0
-0.3679,-0.0613,1.001,2.626,-3.1298,-4.3664,0,0,0
-0.312,-0.0203,1.0269,-3.1145,-3.3664,-4.458,0,0,0
-0.3015,-0.064,1.0046,-8.9847,7.3817,-1.771,0,0,0
-0.3704,-0.1006,0.9041,-4.2214,7.8015,-2.3053,0,0,0
-0.3457,-0.0967,0.9028,4.1374,1.8244,-1.8092,0,0,0
-0.3362,-0.0581,0.9382,8.2595,3.7939,-1.687,0,0,0
-0.3418,-0.0356,0.9812,6.9237,3.4656,2.8321,0,0,0
-0.3545,-0.0447,0.9951,0.8321,5.0611,4.5267,0,0,0
-0.4031,-0.0571,0.957,-0.6412,2.2672,-0.7863,0,0,0
-0.3713,-0.0637,0.9739,-1.7405,-3.9695,-1.1832,0,0,0
-0.3567,-0.0422,0.9944,-4.3664,-3.3435,-3.1985,0,0,0
-0.3501,-0.0454,0.9753,-7.1145,-2.2595,-1.5115,0,0,0
-0.3411,-0.0627,0.9568,-7.6718,-0.6718,-0.2901,0,0,0
-0.3567,-0.0828,0.9304,-4.4885,-1.5115,-1.3969,0,0,0
-0.3494,-0.0776,0.9346,-1.6718,-4.3359,-0.9084,0,0,0
-0.3411,-0.0684,0.9536,-0.9466,-4.1603,-1.5802,0,0,0
-0.3381,-0.074,0.9568,-1.1679,-3.0687,-1.2901,0,0,0
-0.3555,-0.0654,0.9636,-0.5496,-2.0992,-1.2061,0,0,0
-0.3391,-0.0522,0.9702,-1.6947,-1.6565,-1.6031,0,0,0
-0.3362,-0.0603,0.9678,-3.2672,2.1374,-0.7328,0,0,0
-0.3472,-0.0769,0.9385,-1.5573,2.0763,-0.4046,0,0,0
-0.3384,-0.0779,0.9556,0.8397,1.7099,1.3282,0,0,0
-0.3525,-0.072,0.9558,2.4504,1.1298,1.1069,0,0,0
-0.3652,-0.0642,0.9653,2.7252,-1.2137,0.0382,0,0,0
-0.343,-0.0391,0.9934,1.4351,-2.7939,0.2061,0,0,0
-0.3171,-0.0386,1.0129,-5.0229,1.5954,3.5191,0,0,0
-0.376,-0.0693,0.9409,-4.7099,5.3511,2.0916,0,0,0
-0.3833,-0.0698,0.9192,-0.8397,-1.2137,1.3817,0,0,0
-0.3621,-0.0527,0.9453,0.5725,-4.6336,-0.7786,0,0,0
-0.3623,-0.0522,0.9644,1.8244,-3.5725,-2.2519,0,0,0
-0.3367,-0.0403,0.9919,-0.9771,-2.2672,-0.687,0,0,0
-0.3572,-0.0649,0.96,-2.2672,0.1145,-1.6947,0,0,0
-0.3677,-0.0715,0.9502,-1.2977,-3.4122,-2.7634,0,0,0
-0.353,-0.0642,0.9634,-0.8092,-5.8855,-4.3206,0,0,0
-0.3462,-0.0544,0.9775,0.084,-5.0687,-4.4809,0,0,0
-0.3201,-0.0339,1.0085,-3.1527,-0.9924,-1.5725,0,0,0
-0.3586,-0.0588,0.9556,-4.8092,3.1527,-1.9847,0,0,0
-0.3721,-0.073,0.9226,-2.3588,-1.0992,-3.1374,0,0,0
-0.3411,-0.0679,0.9409,-0.5725,-4.7634,-3.4656,0,0,0
-0.3367,-0.0625,0.96,-0.1832,-3.4427,-3.7405,0,0,0
-0.3184,-0.0649,0.9692,-2.2214,-1.8702,-0.7405,0,0,0
-0.3301,-0.083,0.9475,-3.313,0.5878,1.0229,0,0,0
-0.3645,-0.0835,0.9216,-0.2748,-2.145,0.3588,0,0,0
-0.3491,-0.073,0.939,1.6794,-4.4656,0.0153,0,0,0
-0.345,-0.0566,0.968,1.458,-4.1756,-1.229,0,0,0
-0.3201,-0.0808,0.9861,-0.0382,-2.1221,0.8397,0,0,0
-0.3281,-0.0691,0.9824,0.3511,1.4198,3.229,0,0,0
-0.3616,-0.0552,0.9656,0.5267,0.8855,2.626,0,0,0
-0.3564,-0.0432,0.9739,-0.3588,-1.8779,1.1298,0,0,0
-0.3496,-0.0461,0.9814,-1.9008,-1.3359,0.5267,0,0,0
-0.3472,-0.0413,0.9741,-2.9924,-0.5878,1.2672,0,0,0
-0.3425,-0.0537,0.9614,-2.8779,-0.4504,0.8168,0,0,0
-0.3481,-0.0583,0.9573,-1.3969,-1.0458,0.3664,0,0,0
-0.3484,-0.0466,0.9626,-0.9695,-2.4809,1.0763,0,0,0
-0.3425,-0.0425,0.9734,-1.0,-1.0916,1.2595,0,0,0
-0.3655,-0.0505,0.9661,-0.1603,-1.2214,0.4122,0,0,0
-0.3623,-0.0344,0.981,0.0076,-3.5115,-0.7176,0,0,0
-0.3562,-0.0208,0.9993,-3.7328,-2.0,-1.8092,0,0,0
-0.3691,-0.0403,0.97,-5.4046,-1.1527,-4.3588,0,0,0
-0.3523,-0.0535,0.9629,-4.5649,-3.7328,-5.084,0,0,0
-0.3162,-0.0535,0.9739,-4.9313,-2.5802,-3.7863,0,0,0
-0.3279,-0.0747,0.9517,-4.7176,0.5267,-2.4198,0,0,0
-0.345,-0.0781,0.9351,-2.3588,-0.2672,-1.5115,0,0,0
-0.3384,-0.0713,0.9441,-1.7634,-1.1985,-1.1145,0,0,0
-0.3462,-0.0691,0.9478,-2.3588,0.0992,-1.7176,0,0,0
-0.3535,-0.0652,0.9363,-3.313,-1.916,-2.7557,0,0,0
-0.3181,-0.085,0.9463,-4.0534,-1.6489,-1.3359,0,0,0
-0.3208,-0.0979,0.9365,-2.2137,-0.4198,-0.3206,0,0,0
-0.3335,-0.1018,0.9431,0.6489,-1.7023,0.9771,0,0,0
-0.3362,-0.0818,0.96,2.4275,-2.5649,1.7176,0,0,0
-0.3394,-0.0728,0.9841,1.6718,-1.5038,1.6183,0,0,0
-0.3606,-0.0654,0.9934,-0.0763,-0.4962,1.2595,0,0,0
-0.3711,-0.0564,0.9761,-1.9695,-2.4962,-0.8779,0,0,0
-0.3535,-0.0547,0.9768,-2.9008,-4.7634,-2.3664,0,0,0
-0.3325,-0.0496,0.978,-5.0916,-4.6489,-2.2824,0,0,0
-0.3264,-0.0583,0.9604,-4.855,-2.2519,-1.7786,0,0,0
-0.3403,-0.0674,0.9446,-2.6031,-1.7939,-1.1069,0,0,0
-0.344,-0.0566,0.9448,-0.3893,-2.6565,-0.9466,0,0,0
-0.3308,-0.0503,0.9695,0.1527,-2.2214,-0.0076,0,0,0
-0.3438,-0.0457,0.9668,0.2519,-0.8168,0.145,0,0,0
-0.3394,-0.0427,0.9695,-0.1832,-0.1298,0.145,0,0,0
-0.3452,-0.0334,0.9661,-1.7939,0.8855,-0.3359,0,0,0
-0.3491,-0.0464,0.9561,-1.7328,-2.0,-1.9008,0,0,0
-0.3164,-0.0564,0.9731,-1.4275,-0.7023,-0.5038,0,0,0
-0.3347,-0.0703,0.9668,-0.2824,1.1069,0.1603,0,0,0
-0.354,-0.061,0.9707,2.0229,0.084,-0.1221,0,0,0
-0.3494,-0.0552,0.9927,1.1374,-0.1756,-0.313,0,0,0
-0.3616,-0.0432,0.9944,-1.3359,-1.0687,-2.8015,0,0,0
-0.3489,-0.0544,0.9912,-3.6107,-2.1298,-3.7557,0,0,0
-0.332,-0.0564,0.9851,-5.3588,-2.2366,-3.916,0,0,0
-0.3186,-0.0715,0.9741,-5.2977,-2.2824,-2.6183,0,0,0
-0.3206,-0.0713,0.9585,-3.6565,-1.1145,-1.7939,0,0,0
-0.3186,-0.0698,0.9456,-1.9008,0.2519,0.7863,0,0,0
-0.3462,-0.061,0.946,0.9695,1.229,0.7481,0,0,0
-0.3608,-0.0493,0.9546,1.5649,-0.2748,0.1069,0,0,0
-0.3577,-0.0432,0.9705,0.0992,-1.9313,-1.2824,0,0,0
-0.3596,-0.0469,0.9839,-2.0992,-2.9771,-3.2977,0,0,0
-0.3516,-0.0505,0.9734,-3.9618,-4.1679,-5.0076,0,0,0
-0.3325,-0.0627,0.9687,-5.2366,-4.313,-5.3359,0,0,0
-0.314,-0.0684,0.9624,-5.1679,-1.4733,-3.0534,0,0,0
-0.3279,-0.0842,0.9441,-3.1145,1.374,-1.458,0,0,0
-0.3267,-0.0774,0.9326,-0.2672,-0.3435,-0.7023,0,0,0
-0.3159,-0.0835,0.9546,1.0229,0.855,0.9008,0,0,0
-0.3428,-0.0798,0.9604,2.0305,1.8931,1.0992,0,0,0
-0.3569,-0.0615,0.9736,0.7939,-0.8855,0.1832,0,0,0
-0.3516,-0.052,0.9824,-2.2443,-3.2595,-2.0534,0,0,0
-0.3352,-0.0642,0.9863,-4.1069,-3.8397,-3.2366,0,0,0
-0.3167,-0.0671,0.9832,-5.3359,-2.1832,-2.4198,0,0,0
-0.3359,-0.0698,0.9492,-4.626,-1.4885,-1.8168,0,0,0
-0.3335,-0.0623,0.9453,-2.6412,-3.2977,-1.7252,0,0,0
-0.3059,-0.0718,0.9697,-1.5649,-0.2748,0.1908,0,0,0
-0.3315,-0.0544,0.9609,0.6107,3.2672,2.5496,0,0,0
-0.3501,-0.0505,0.9602,1.2824,2.0305,2.5344,0,0,0
-0.3633,-0.0422,0.9741,0.5954,-0.7405,0.5115,0,0,0
-0.3462,-0.0415,0.9854,-0.9771,-1.1908,-0.9237,0,0,0
-0.3374,-0.0483,0.988,-2.8015,-0.1908,-1.6794,0,0,0
-0.3511,-0.0513,0.9795,-4.0229,-1.4275,-2.687,0,0,0
-0.3391,-0.0601,0.9812,-5.771,-2.7557,-3.4427,0,0,0
-0.3264,-0.0625,0.9702,-6.1679,-2.6031,-3.4504,0,0,0
-0.3232,-0.0737,0.9531,-4.8092,-2.5954,-2.4504,0,0,0
-0.3162,-0.071,0.9526,-4.1069,-1.0534,-0.6412,0,0,0
-0.3359,-0.0789,0.9417,-2.9313,0.4809,-0.7176,0,0,0
-0.3433,-0.0859,0.9385,-0.2214,-1.1908,-0.3893,0,0,0
-0.3276,-0.0779,0.9634,-0.0534,-0.5954,-0.0076,0,0,0
-0.3352,-0.0708,0.9653,-1.313,-0.4733,-0.2672,0,0,0
-0.3262,-0.0798,0.97,-3.3817,-1.4427,-0.4733,0,0,0
-0.3247,-0.0793,0.9595,-4.1603,-1.8397,-0.2672,0,0,0
-0.3162,-0.0874,0.9551,-2.8092,-1.3817,1.1298,0,0,0
-0.321,-0.0767,0.9568,-1.2137,-0.0687,2.9618,0,0,0
-0.3433,-0.0752,0.9543,1.5802,0.8015,2.7481,0,0,0
-0.3391,-0.0586,0.9795,2.4046,-0.5649,2.542,0,0,0
-0.3303,-0.0562,1.0051,1.1527,1.7634,3.1908,0,0,0
-0.3535,-0.0452,0.9893,-1.1832,1.3588,1.7481,0,0,0
-0.3486,-0.0566,0.9873,-3.2061,-0.2137,0.7481,0,0,0
-0.3464,-0.0413,0.9773,-4.3053,-1.6718,-0.9389,0,0,0
-0.3284,-0.0425,0.9702,-5.1832,-1.4885,-0.542,0,0,0
-0.3408,-0.0569,0.9482,-4.8702,0.2366,-0.9771,0,0,0
-0.3467,-0.0654,0.9343,-1.5267,-1.3435,-1.2443,0,0,0
-0.3354,-0.0481,0.9639,0.1832,-3.0153,-0.8779,0,0,0
-0.3247,-0.051,0.981,-1.3359,-0.458,-0.8779,0,0,0
-0.3413,-0.0627,0.9751,-1.1679,-1.1832,-1.7863,0,0,0
-0.332,-0.0593,0.9871,-1.4046,-2.6565,-1.1145,0,0,0
-0.3381,-0.062,0.9956,-2.7786,-0.8855,-1.5649,0,0,0
-0.3347,-0.062,0.9819,-2.9847,-1.6412,-2.2672,0,0,0
-0.3132,-0.0579,0.9846,-3.6031,0.313,-0.458,0,0,0
-0.3264,-0.0718,0.9607,-3.7939,3.1832,0.1527,0,0,0
-0.3494,-0.0784,0.9438,-0.7405,0.855,-0.1145,0,0,0
-0.3267,-0.0647,0.9646,0.7252,-0.0534,0.4427,0,0,0
-0.3315,-0.0549,0.9766,-0.229,1.916,0.3511,0,0,0
-0.3489,-0.0625,0.9666,-1.4275,1.0305,-1.0992,0,0,0
-0.3494,-0.0574,0.9705,-2.8168,-1.6183,-1.7557,0,0,0
-0.3337,-0.0522,0.9714,-5.0534,-2.0153,-2.3664,0,0,0
-0.3279,-0.0647,0.9558,-6.084,-1.8626,-2.5725,0,0,0
-0.3203,-0.0801,0.9338,-5.0229,-1.6718,-1.4198,0,0,0
-0.3242,-0.0842,0.9363,-2.0,-0.2824,-0.3817,0,0,0
-0.3354,-0.0847,0.9463,1.0,-0.2061,0.8244,0,0,0
-0.3413,-0.0688,0.9695,1.8321,-1.3282,0.3664,0,0,0
-0.3438,-0.0681,0.9919,0.8244,-1.8931,-0.4885,0,0,0
-0.3398,-0.0549,1.0049,-3.2366,-2.0153,-1.145,0,0,0
-0.3379,-0.0671,0.9819,-6.3206,-3.0534,-2.1527,0,0,0
-0.3201,-0.0767,0.9573,-6.5649,-1.8092,-1.3511,0,0,0
-0.3083,-0.0801,0.9451,-4.3359,-0.229,0.3893,0,0,0
-0.3179,-0.0825,0.9458,-1.0229,2.0076,2.5573,0,0,0
-0.3315,-0.0737,0.939,1.2137,1.6641,3.0687,0,0,0
-0.3396,-0.0618,0.9583,2.1298,-0.2901,2.7786,0,0,0
-0.3457,-0.0535,0.9839,0.7405,-0.5115,1.8931,0,0,0
-0.3582,-0.0432,0.981,-1.2595,-1.4885,0.687,0,0,0
-0.3652,-0.0369,0.9814,-3.2595,-4.0153,-2.0916,0,0,0
-0.3401,-0.0454,0.9824,-5.3969,-4.7481,-3.7557,0,0,0
-0.3276,-0.0623,0.9758,-4.4733,-3.4733,-3.5115,0,0,0
-0.2971,-0.0674,0.9834,-3.229,-0.9542,-0.374,0,0,0
-0.3137,-0.0632,0.9626,-2.0458,3.2137,1.6641,0,0,0
-0.3513,-0.0708,0.9429,1.0305,2.7863,1.6489,0,0,0
-0.3413,-0.0562,0.9678,2.2061,-0.1603,0.7328,0,0,0
-0.3328,-0.0549,0.9924,0.3664,0.6641,-0.0611,0,0,0
-0.3435,-0.0662,0.9788,-1.0763,0.2595,-0.6641,0,0,0
-0.3523,-0.0737,0.9724,-2.1221,-2.4656,-1.9695,0,0,0
-0.3362,-0.0588,0.9844,-4.2137,-4.3664,-3.229,0,0,0
-0.3191,-0.0637,0.9768,-6.3664,-3.5344,-2.9771,0,0,0
-0.3154,-0.0713,0.9639,-6.4733,-1.4656,-1.2824,0,0,0
-0.3274,-0.0742,0.9341,-4.6794,0.4046,-0.1832,0,0,0
-0.3284,-0.0732,0.9238,-1.4504,-0.229,-0.1985,0,0,0
-0.3113,-0.0764,0.9539,1.1069,0.6565,1.0687,0,0,0
-0.3298,-0.0737,0.9651,2.0229,1.8779,1.8473,0,0,0
-0.3418,-0.072,0.9734,0.8244,0.0,1.5267,0,0,0
-0.3435,-0.0657,0.98,-0.7023,-1.4427,0.084,0,0,0
-0.3428,-0.0559,0.9888,-3.374,-2.5649,-0.6641,0,0,0
-0.3418,-0.054,0.9685,-5.2748,-2.6183,-2.2137,0,0,0
-0.3267,-0.0757,0.9563,-5.5496,-3.1145,-1.9237,0,0,0
-0.3052,-0.0833,0.9495,-4.1527,-0.3817,0.0763,0,0,0
-0.3137,-0.0867,0.9382,-0.916,1.9389,1.9008,0,0,0
-0.335,-0.0818,0.9375,2.7939,0.1985,3.0382,0,0,0
-0.3376,-0.0623,0.9714,3.1069,-1.687,2.2061,0,0,0
-0.3384,-0.0618,0.9924,0.8931,-1.3588,1.0382,0,0,0
-0.3481,-0.0496,0.9868,-1.8702,-2.4275,0.3053,0,0,0
-0.3384,-0.0488,0.9929,-4.4504,-4.1756,-1.3359,0,0,0
-0.3203,-0.0598,0.9839,-5.5573,-1.4427,-0.8168,0,0,0
-0.3328,-0.0598,0.9534,-4.8702,-0.3588,-0.5267,0,0,0
-0.3381,-0.0674,0.9529,-3.7099,-1.084,-0.9542,0,0,0
-0.3162,-0.0679,0.9551,-2.2595,-0.9313,0.0611,0,0,0
-0.3093,-0.0747,0.9675,0.0076,1.1832,1.7176,0,0,0
-0.3384,-0.0618,0.9675,0.2595,1.5954,2.1145,0,0,0
-0.3401,-0.0635,0.9766,0.7176,-0.2519,1.4046,0,0,0
-0.3464,-0.0498,0.9883,-0.3511,0.0611,0.687,0,0,0
-0.3508,-0.0437,0.9875,-2.7252,-0.5191,-0.6183,0,0,0
-0.3477,-0.0444,0.9761,-4.7099,-2.458,-2.5649,0,0,0
-0.3186,-0.0479,0.9712,-6.4122,-2.3359,-3.0763,0,0,0
-0.3154,-0.061,0.9556,-6.1527,0.5725,-1.0992,0,0,0
-0.3269,-0.0725,0.9377,-3.0382,1.6183,-0.2672,0,0,0
-0.3333,-0.0713,0.9392,0.855,0.2366,-0.0076,0,0,0
-0.3291,-0.0654,0.9692,2.6565,-0.7634,-0.2137,0,0,0
-0.3276,-0.0544,1.0071,1.9008,0.2595,-0.6794,0,0,0
-0.3403,-0.0581,1.0107,-1.0,0.6107,-1.4504,0,0,0
-0.3611,-0.0474,1.0032,-3.9542,-2.2977,-4.2061,0,0,0
-0.3201,-0.0454,1.0115,-8.2977,-2.9771,-5.2748,0,0,0
-0.3186,-0.062,0.9766,-10.7939,0.9771,-4.0992,0,0,0
-0.3477,-0.0806,0.9287,-7.3435,1.5344,-3.7405,0,0,0
-0.335,-0.0664,0.9302,-3.229,-1.3969,-3.3282,0,0,0
-0.3191,-0.0649,0.9473,-2.3588,0.6412,-2.6336,0,0,0
-0.3462,-0.0828,0.9326,-0.626,0.7939,-2.9695,0,0,0
-0.3501,-0.0823,0.9485,1.5649,-3.5878,-4.1908,0,0,0
-0.3206,-0.0698,0.9763,-0.7099,-4.1527,-4.855,0,0,0
-0.3323,-0.0786,0.9758,-3.7328,-3.4275,-5.1145,0,0,0
-0.3337,-0.0906,0.9565,-4.2824,-5.2901,-5.9695,0,0,0
-0.3308,-0.0903,0.949,-2.542,-5.8473,-5.7863,0,0,0
-0.3308,-0.0835,0.9558,-2.0229,-6.0153,-5.3969,0,0,0
-0.3157,-0.0808,0.9558,-2.1756,-4.374,-4.6947,0,0,0
-0.3047,-0.0979,0.9734,-1.0916,-3.2901,-3.7099,0,0,0
-0.3264,-0.0803,0.9521,0.5038,-4.1908,-2.3893,0,0,0
-0.325,-0.074,0.9822,1.4275,-4.6336,-2.7939,0,0,0
-0.3284,-0.0549,0.9846,0.1908,-4.8015,-2.8931,0,0,0
-0.3586,-0.0349,0.9861,-2.7634,-6.1756,-5.4504,0,0,0
-0.3369,-0.053,0.9856,-5.2214,-6.4733,-7.0687,0,0,0
-0.3271,-0.0496,0.9578,-5.8397,-6.4962,-7.9313,0,0,0
-0.3103,-0.0623,0.9629,-5.5038,-6.7405,-7.4122,0,0,0
-0.2773,-0.0784,0.9673,-4.9771,-3.4962,-4.9084,0,0,0
-0.3008,-0.0913,0.9519,-1.9847,-0.2061,-3.1145,0,0,0
-0.3271,-0.0818,0.9551,0.9542,-1.9237,-2.5573,0,0,0
-0.3223,-0.0764,0.9795,2.1069,-3.3664,-2.9542,0,0,0
-0.3293,-0.0681,1.0005,0.4427,-2.8397,-3.9237,0,0,0
-0.3367,-0.0649,0.998,-3.0992,-3.374,-5.2977,0,0,0
-0.3374,-0.0657,0.99,-5.9313,-4.7176,-6.5573,0,0,0
-0.3333,-0.0784,0.9609,-6.8168,-6.4122,-8.2824,0,0,0
-0.2866,-0.0833,0.967,-7.1221,-5.8931,-6.6641,0,0,0
