ax,ay,az,gx,gy,gz,left_click,right_click
-0.0374,0.1196,0.9895,-3.0305,-7.9389,-1.7557,0,0,0
-0.0364,0.1147,0.998,-4.3282,-8.0763,-3.0229,0,0,0
-0.0388,0.1104,0.9844,-5.9847,-8.4275,-4.2595,0,0,0
-0.0332,0.0962,1.0161,-7.6794,-8.3053,-5.5115,0,0,0
-0.032,0.0884,1.0464,-8.855,-5.9084,-5.4809,0,0,0
-0.0322,0.0767,1.0356,-9.7786,-3.2443,-4.9542,0,0,0
-0.0383,0.0725,1.0059,-9.7252,-2.7252,-4.3588,0,0,0
-0.0427,0.0627,0.9949,-8.687,-3.9695,-4.3969,0,0,0
-0.0474,0.0684,1.0146,-7.9084,-5.1527,-5.1603,0,0,0
-0.0544,0.0605,1.0234,-7.4427,-5.3435,-5.5038,0,0,0
-0.0505,0.0447,1.011,-6.5954,-5.5038,-5.1069,0,0,0
-0.0408,0.0388,1.01,-7.1679,-6.9771,-3.8321,0,0,0
-0.04,0.0437,1.0166,-7.9237,-7.8321,-2.8092,0,0,0
-0.0366,0.0374,1.063,-8.4962,-7.6565,-2.0763,0,0,0
-0.0278,0.0315,1.0999,-8.8855,-4.6718,-1.6794,0,0,0
-0.0269,0.0298,1.1174,-7.6107,-0.9466,-1.1756,0,0,0
-0.03,0.041,1.1028,-6.1603,2.8626,-0.5038,0,0,0
-0.0344,0.0432,1.0635,-3.6565,3.5725,-0.1908,0,0,0
-0.0454,0.0615,1.0291,-2.0153,2.5954,-1.2214,0,0,0
-0.0498,0.064,1.0208,-0.9389,0.6107,-2.7405,0,0,0
-0.0496,0.0535,1.0176,-0.7481,-1.0611,-4.374,0,0,0
-0.0483,0.041,1.0396,-1.1832,-1.9237,-4.6489,0,0,0
-0.0444,0.0249,1.0513,-0.8473,-1.0305,-2.855,0,0,0
-0.043,0.0359,1.0542,0.1756,0.313,-0.9237,0,0,0
-0.0415,0.0547,1.0256,1.1832,1.2595,0.5878,0,0,0
-0.0469,0.0684,0.9985,1.626,0.9237,-0.0153,0,0,0
-0.0432,0.0762,0.9893,1.3511,-0.4275,-0.8397,0,0,0
-0.0405,0.0657,0.9912,0.1756,-1.8321,-1.8015,0,0,0
-0.0425,0.0564,1.0078,-0.9084,-2.7405,-2.0611,0,0,0
-0.0361,0.0508,1.0232,-1.2214,-2.3435,-1.5802,0,0,0
-0.0381,0.0479,1.0293,-1.8244,-1.2061,-0.2672,0,0,0
-0.0327,0.0474,1.0312,-2.1374,-0.8626,0.7939,0,0,0
-0.0352,0.0554,1.0386,-1.6641,0.1603,1.1985,0,0,0
-0.0371,0.0637,1.0276,-0.5496,-0.229,1.2977,0,0,0
-0.0366,0.0691,1.0173,0.4275,-1.4504,0.5267,0,0,0
-0.0381,0.0708,1.0046,0.8779,-2.6718,-0.687,0,0,0
-0.0405,0.0688,1.0193,0.4656,-3.3282,-1.4885,0,0,0
-0.032,0.0537,1.03,-0.3588,-3.0534,-1.3817,0,0,0
-0.03,0.0454,1.0593,-0.9695,-1.7176,-0.2443,0,0,0
-0.0295,0.0459,1.0608,-0.5802,0.1145,1.4046,0,0,0
-0.0242,0.0645,1.0464,-0.0153,0.5725,1.9924,0,0,0
-0.0266,0.0767,1.0269,1.0611,0.5191,1.3359,0,0,0
-0.0286,0.0925,1.0303,1.2061,0.229,-0.313,0,0,0
-0.0308,0.0876,1.0103,0.5649,-0.3969,-1.6031,0,0,0
-0.0371,0.0774,1.0093,-0.8473,-1.145,-2.2672,0,0,0
-0.0344,0.0671,1.0291,-2.1756,-1.1145,-2.3817,0,0,0
-0.041,0.0554,1.0522,-2.3817,-0.0763,-1.1985,0,0,0
-0.043,0.0483,1.0542,-1.8473,1.4885,0.0687,0,0,0
-0.0364,0.0605,1.0376,0.2977,1.771,1.3435,0,0,0
-0.031,0.0693,1.0173,1.2137,0.4504,1.5038,0,0,0
-0.032,0.0825,1.0056,0.9542,-0.7405,0.7099,0,0,0
-0.0359,0.0857,1.0125,-0.0611,-0.9542,-0.7328,0,0,0
-0.0337,0.074,1.0225,-1.6565,-0.5573,-1.626,0,0,0
-0.0352,0.0667,1.0405,-3.5725,1.3435,-1.7786,0,0,0
-0.0278,0.0627,1.0623,-4.6412,3.855,-0.5496,0,0,0
-0.03,0.0581,1.0503,-5.3053,6.9008,0.9847,0,0,0
-0.0425,0.0664,1.0325,-5.2672,8.7786,1.084,0,0,0
-0.0466,0.0686,1.0505,-5.7557,10.229,0.2977,0,0,0
-0.0496,0.062,1.074,-5.5878,13.3969,0.0534,0,0,0
-0.0432,0.0364,1.0737,-6.5038,18.2901,0.7481,0,0,0
-0.0535,0.04,1.062,-7.229,21.2137,4.2061,0,0,0
-0.0505,0.042,1.0352,-8.1679,21.8168,7.3206,0,0,0
-0.0493,0.0608,1.01,-7.9847,19.4046,8.6947,0,0,0
-0.064,0.0791,1.0352,-6.8931,17.4046,7.2061,0,0,0
-0.0562,0.073,1.0708,-5.1374,17.2977,4.8244,0,0,0
-0.0542,0.0488,1.0632,0.8626,17.3969,3.6336,0,0,0
-0.0671,0.0649,1.042,-2.0458,18.145,0.9847,0,0,0
-0.0645,0.0574,1.0183,-0.0382,15.6794,0.7939,0,0,0
-0.072,0.0745,1.011,0.542,13.458,-1.0382,0,0,0
-0.083,0.0632,1.0037,1.2748,11.3053,-2.855,0,0,0
-0.0811,0.0435,1.0369,1.9924,10.6031,-3.0382,0,0,0
-0.0828,0.0479,1.0581,1.9084,11.9084,-1.916,0,0,0
-0.0942,0.0493,1.0706,0.2366,15.3435,-1.0229,0,0,0
-0.0918,0.0552,1.0691,-0.5802,18.2672,-0.2519,0,0,0
-0.0874,0.0544,1.0498,-0.3893,20.3206,0.7023,0,0,0
-0.0923,0.064,1.0149,0.1832,20.3435,1.4656,0,0,0
-0.0996,0.062,0.9902,1.0229,17.8855,1.1679,0,0,0
-0.1133,0.0625,0.989,2.9542,14.4885,0.5344,0,0,0
-0.1218,0.0732,1.0022,3.6794,12.6107,0.4198,0,0,0
-0.1211,0.0588,1.031,2.6641,11.1069,0.9008,0,0,0
-0.1101,0.052,1.0676,2.8244,12.6183,1.8779,0,0,0
-0.1077,0.0549,1.1018,4.7939,16.1832,3.3435,0,0,0
-0.1008,0.0771,1.0869,5.9084,20.4427,2.9542,0,0,0
-0.1091,0.0874,1.0728,7.1527,24.542,3.1145,0,0,0
-0.1094,0.1094,1.0793,6.7405,27.7023,2.3282,0,0,0
-0.105,0.103,1.0425,5.0992,29.374,0.3282,0,0,0
-0.1118,0.1116,1.0427,4.1603,31.2672,-1.9084,0,0,0
-0.114,0.1021,1.0032,4.7023,31.1603,-4.5878,0,0,0
-0.1321,0.1091,0.9626,5.3282,27.6489,-6.6794,0,0,0
-0.1499,0.0835,0.9622,8.2748,23.0763,-7.2061,0,0,0
-0.1531,0.1038,0.9556,3.9466,19.4809,-9.1298,0,0,0
-0.1614,0.095,0.9668,3.5649,16.2901,-9.7252,0,0,0
-0.1663,0.0852,0.9839,3.1603,14.855,-10.8321,0,0,0
-0.1814,0.0801,0.9709,4.0611,13.0992,-10.1298,0,0,0
-0.1926,0.0808,0.9644,4.6107,11.8931,-9.0153,0,0,0
-0.1963,0.0754,0.9497,4.8244,9.8702,-7.4122,0,0,0
-0.1899,0.0742,0.9329,4.0458,7.0229,-5.458,0,0,0
-0.1919,0.0806,0.9343,2.3893,4.0687,-3.3893,0,0,0
-0.1836,0.0859,0.9419,-0.229,1.2977,-2.0458,0,0,0
-0.1848,0.0898,0.9707,-1.8244,0.5878,-1.5038,0,0,0
-0.1877,0.0935,0.9839,-2.5496,0.4733,-1.5649,0,0,0
-0.1812,0.0964,0.9758,-2.6489,0.0153,-2.1069,0,0,0
-0.176,0.0903,0.9822,-2.6336,-0.4962,-2.8473,0,0,0
-0.1785,0.0923,0.9951,-3.5649,-0.626,-2.7099,0,0,0
-0.1775,0.0852,1.0132,-3.5954,-0.1756,-3.0305,0,0,0
-0.1716,0.0679,1.0083,-3.4656,0.3817,-3.3664,0,0,0
-0.1765,0.0654,1.0027,-3.3435,-0.3282,-2.7099,0,0,0
-0.1812,0.0664,1.0073,-3.3969,-1.2977,-1.7939,0,0,0
-0.1863,0.0696,1.0132,-2.8779,-2.1069,-1.6489,0,0,0
-0.1826,0.0601,1.0288,-2.3206,-2.2366,-1.8779,0,0,0
-0.1782,0.0593,1.0383,-1.8321,-1.3969,-1.458,0,0,0
-0.1797,0.0605,1.0444,-0.0687,-0.145,-0.1756,0,0,0
-0.1807,0.0674,1.0376,1.9389,0.4046,0.1908,0,0,0
-0.1777,0.0825,1.0312,2.8855,-0.0305,0.3817,0,0,0
-0.1694,0.0903,1.0132,2.0763,-0.1221,0.084,0,0,0
-0.1748,0.0896,1.0176,0.1069,0.313,-0.771,0,0,0
-0.1785,0.0813,1.0166,-1.1832,0.9542,-1.2672,0,0,0
-0.1792,0.0708,1.0305,-1.8015,1.9771,-1.0992,0,0,0
-0.1821,0.0728,1.021,-1.6031,3.5573,0.2672,0,0,0
-0.1841,0.0867,0.9922,-0.3435,2.8321,1.4809,0,0,0
-0.186,0.0955,0.9749,0.458,0.7481,0.771,0,0,0
-0.1938,0.1072,0.9832,0.6031,-0.9389,-0.5649,0,0,0
-0.1899,0.1055,0.989,0.0763,-2.1527,-1.8397,0,0,0
-0.1755,0.0903,1.0144,-1.0992,-1.9466,-1.9771,0,0,0
-0.1753,0.0874,1.0291,-2.7863,-0.2977,-0.9847,0,0,0
-0.1775,0.0894,1.0295,-3.0076,2.0763,-0.084,0,0,0
-0.1814,0.0916,1.0061,-2.6183,2.5115,-0.1374,0,0,0
-0.1836,0.1011,0.9944,-2.1527,1.458,-0.8092,0,0,0
-0.1843,0.0996,0.9971,-1.5496,-0.7023,-1.5267,0,0,0
-0.1824,0.0906,1.0034,-0.7863,-1.542,-2.458,0,0,0
-0.1765,0.0908,1.0061,-1.1679,-1.8092,-2.4275,0,0,0
-0.1672,0.0911,1.0193,-1.2366,-0.7939,-2.1145,0,0,0
-0.1743,0.0872,1.0295,-1.3893,0.9008,-1.7634,0,0,0
-0.1731,0.082,1.0078,-0.7634,1.9771,-2.0305,0,0,0
-0.1775,0.0864,1.0007,-1.1145,1.0611,-1.9313,0,0,0
-0.1829,0.0928,1.0046,-1.1527,1.0382,-2.0229,0,0,0
-0.1865,0.0837,0.9958,-1.1756,0.5802,-2.2977,0,0,0
-0.1858,0.0801,0.9929,-1.7481,-0.8244,-2.1069,0,0,0
-0.188,0.0808,1.0015,-2.0305,-1.5802,-2.1527,0,0,0
-0.1892,0.0803,0.9995,-1.7634,-1.8931,-1.6336,0,0,0
-0.1873,0.0771,1.0127,-1.626,-2.2137,-1.0153,0,0,0
-0.1809,0.0742,1.0186,-2.2061,-1.2901,-0.7557,0,0,0
-0.1787,0.0698,1.0315,-1.5344,-0.3435,-0.4351,0,0,0
-0.1846,0.0759,1.0198,-0.7405,0.4962,0.1145,0,0,0
-0.1853,0.0767,1.0144,-0.3282,0.4656,0.4504,0,0,0
-0.1799,0.0791,0.9937,0.3511,-1.0534,0.5649,0,0,0
-0.1792,0.0854,0.9893,0.5038,-3.6183,0.2824,0,0,0
-0.1851,0.0852,0.988,0.5802,-5.6107,-0.3664,0,0,0
-0.1909,0.0786,0.9846,1.145,-7.3435,-0.374,0,0,0
-0.1956,0.082,0.9871,1.7328,-9.6565,-0.542,0,0,0
-0.1912,0.072,0.9717,3.1374,-12.1298,0.3359,0,0,0
-0.1973,0.0811,0.9414,3.7634,-15.9771,1.2443,0,0,0
-0.199,0.0886,0.9111,4.5573,-21.626,1.4275,0,0,0
-0.1829,0.0925,0.8616,4.3893,-29.4275,2.4122,0,0,0
-0.1924,0.093,0.8818,3.0763,-37.8626,1.6412,0,0,0
-0.1753,0.0872,0.9231,4.8855,-43.9313,1.6031,0,0,0
-0.1697,0.0806,0.9827,5.4427,-46.2901,0.5573,0,0,0
-0.1458,0.0759,1.0432,3.2977,-41.6107,1.4656,0,0,0
-0.1255,0.0723,1.002,2.8473,-38.4427,4.0992,0,0,0
-0.134,0.0874,0.9639,1.7405,-38.9008,6.6031,0,0,0
-0.1223,0.0989,0.958,2.458,-41.4656,7.0687,0,0,0
-0.1155,0.1086,0.9702,1.5725,-43.7099,7.145,0,0,0
-0.1082,0.1113,0.9797,-0.3282,-44.8626,5.7481,0,0,0
-0.0903,0.0972,0.9829,-1.5191,-45.5496,4.9466,0,0,0
-0.0693,0.0891,1.0718,-1.8855,-43.6641,5.4733,0,0,0
-0.0439,0.0928,1.1472,-2.1145,-36.0458,6.8397,0,0,0
-0.031,0.0942,1.1384,-1.9771,-27.8473,8.6947,0,0,0
-0.0171,0.1165,1.0884,-1.5878,-23.5114,9.5038,0,0,0
-0.0286,0.1448,1.0547,-0.084,-21.6336,8.0534,0,0,0
-0.0242,0.146,1.0188,0.7634,-23.0763,4.313,0,0,0
-0.0354,0.1523,0.9932,-0.0611,-26.8626,-0.4504,0,0,0
-0.0459,0.1428,0.991,-1.0687,-30.8397,-3.8092,0,0,0
-0.0425,0.1125,1.0083,-1.916,-32.4351,-5.1832,0,0,0
-0.0259,0.093,1.1006,-0.1908,-29.1832,-4.4198,0,0,0
-0.0242,0.0774,1.1204,-0.084,-22.7405,-2.8244,0,0,0
-0.0227,0.0833,1.1113,-0.8473,-16.2901,0.2824,0,0,0
-0.0239,0.0874,1.084,-0.3206,-10.8244,3.0305,0,0,0
-0.0237,0.1086,1.0603,0.3664,-7.3206,4.6183,0,0,0
-0.0125,0.1221,1.0203,-1.229,-6.2366,5.0,0,0,0
-0.0115,0.1267,1.009,-3.6107,-6.8168,4.0076,0,0,0
-0.0142,0.125,1.0173,-5.1527,-7.3435,1.8626,0,0,0
-0.0103,0.1138,1.0439,-4.2901,-7.8702,0.2595,0,0,0
-0.0127,0.1064,1.0591,-2.2748,-7.5038,-0.7405,0,0,0
-0.0125,0.1052,1.0771,0.7481,-6.458,-1.2977,0,0,0
-0.0012,0.1055,1.0735,2.4962,-4.9084,-0.8779,0,0,0
-0.0076,0.1162,1.0613,3.855,-3.3282,-0.5649,0,0,0
0.0024,0.1162,1.0278,4.1298,-2.7099,-0.542,0,0,0
-0.0032,0.1233,1.0078,3.3817,-4.4656,-0.1527,0,0,0
-0.0056,0.1248,0.9995,2.2061,-6.3817,0.0076,0,0,0
-0.0015,0.1128,1.0261,2.2061,-7.0611,-0.1603,0,0,0
0.0046,0.1104,1.0217,2.1985,-7.0382,-0.0916,0,0,0
0.0056,0.1211,1.042,2.6947,-6.4046,-0.4427,0,0,0
0.0029,0.1284,1.0522,2.9008,-3.8168,-1.2366,0,0,0
0.0154,0.1218,1.0249,1.3053,-2.0458,-1.6641,0,0,0
0.0076,0.1289,0.9966,-1.0229,-1.687,-2.0687,0,0,0
-0.0078,0.1252,0.9988,-2.5573,-2.2137,-2.7328,0,0,0
-0.01,0.1218,1.002,-3.5725,-2.7557,-3.0229,0,0,0
-0.0129,0.1094,1.0054,-3.7099,-3.4809,-2.9313,0,0,0
-0.0098,0.1082,0.9998,-3.4122,-4.3817,-1.9389,0,0,0
-0.0137,0.1079,1.0256,-2.7405,-4.687,-1.3664,0,0,0
0.001,0.0994,1.0532,-2.1985,-3.3588,-0.687,0,0,0
0.0032,0.1067,1.0603,-2.0153,-1.0992,-0.0763,0,0,0
0.0073,0.1152,1.0464,-1.5802,1.1832,0.3053,0,0,0
0.0061,0.1199,1.0269,-1.6565,1.6794,-0.145,0,0,0
0.0027,0.1221,1.0283,-2.4656,1.3664,-0.8321,0,0,0
-0.0034,0.1211,1.0173,-2.6947,0.7023,-1.7176,0,0,0
-0.0024,0.1091,1.0134,-3.0305,-0.9389,-2.1832,0,0,0
-0.0081,0.1118,1.0281,-2.8702,-2.1908,-2.2061,0,0,0
-0.0007,0.1067,1.0349,-2.8015,-1.6412,-2.1145,0,0,0
-0.0007,0.1038,1.0493,-2.8168,-0.4427,-1.7863,0,0,0
-0.0051,0.105,1.0459,-2.4885,1.4427,-1.8321,0,0,0
-0.0088,0.1064,1.0254,-1.9618,1.6336,-1.5954,0,0,0
-0.0054,0.1057,1.0146,-2.626,1.4504,-1.2443,0,0,0
-0.0034,0.1077,1.0132,-2.6718,0.2672,-0.6336,0,0,0
-0.0063,0.1069,1.0063,-2.3817,-0.6947,-0.542,0,0,0
-0.0066,0.114,1.0146,-1.8092,-2.2061,-0.9389,0,0,0
0.0024,0.1042,1.0217,-1.374,-3.4275,-0.9389,0,0,0
0.0007,0.1096,1.0393,-1.2443,-2.9084,-0.9008,0,0,0
0.0032,0.1108,1.0308,-1.0916,-1.2824,-0.8168,0,0,0
0.0063,0.1086,1.0327,-1.2901,-1.0305,-0.5649,0,0,0
0.0017,0.1172,1.033,-2.0,0.4809,-1.0,0,0,0
0.0044,0.1218,1.0288,-3.0534,1.6794,-0.9924,0,0,0
0.0032,0.1123,1.0129,-3.8779,2.1908,-1.4504,0,0,0
-0.0061,0.1096,1.01,-4.3359,1.5725,-1.8779,0,0,0
-0.0122,0.1108,1.0037,-4.5038,1.1069,-1.855,0,0,0
-0.0073,0.1001,1.02,-3.374,0.1832,-1.687,0,0,0
0.0049,0.1011,1.0413,-2.5649,0.2137,-0.374,0,0,0
-0.0012,0.1111,1.0515,-1.0076,1.2977,0.3588,0,0,0
0.0073,0.1277,1.0339,0.5725,1.4962,0.0916,0,0,0
0.0088,0.1282,1.022,0.7939,1.0763,-1.5573,0,0,0
0.0054,0.1292,1.0266,0.542,0.5649,-3.145,0,0,0
-0.0022,0.1172,1.0195,0.3588,-0.5725,-4.2137,0,0,0
-0.0103,0.1108,1.0242,0.5802,-1.2901,-4.458,0,0,0
-0.0066,0.1033,1.0381,-0.4351,-0.6718,-4.1603,0,0,0
-0.0046,0.0996,1.051,-0.7634,1.3359,-2.5573,0,0,0
-0.0078,0.106,1.0308,-1.1832,2.771,-1.4046,0,0,0
-0.0017,0.113,1.0273,-1.5802,3.5115,-0.6947,0,0,0
-0.0044,0.1147,0.9995,-1.8321,3.458,-1.2519,0,0,0
-0.0144,0.123,0.9917,-1.7863,1.9389,-2.2519,0,0,0
-0.0132,0.1106,1.0037,-2.1145,0.0534,-3.3511,0,0,0
-0.0161,0.1003,1.0249,-1.9847,-0.0687,-2.9924,0,0,0
-0.0107,0.0911,1.0303,-2.2672,0.5115,-1.8855,0,0,0
-0.0125,0.0925,1.0278,-2.6794,0.8626,-0.3053,0,0,0
-0.012,0.0955,1.033,-2.9695,1.5496,0.6336,0,0,0
-0.0115,0.0972,1.0283,-3.3664,2.2443,1.2977,0,0,0
-0.0071,0.1096,1.0232,-3.9771,2.5725,1.4504,0,0,0
-0.0095,0.1111,1.0261,-4.7405,2.1374,0.542,0,0,0
-0.0122,0.1145,1.0283,-4.5573,2.4733,-0.1374,0,0,0
-0.012,0.1021,1.0325,-4.5191,2.8244,-0.2443,0,0,0
-0.0161,0.1143,1.0308,-3.6718,3.1679,0.0153,0,0,0
-0.0151,0.1064,1.0217,-3.1679,2.6718,0.0916,0,0,0
-0.0127,0.1047,1.0256,-2.3588,2.084,0.2214,0,0,0
-0.0093,0.1113,1.0183,-2.3053,1.0687,0.0153,0,0,0
-0.0061,0.1157,1.0371,-3.1374,1.0534,-0.1298,0,0,0
-0.0063,0.1082,1.0454,-4.0458,2.3206,-0.2443,0,0,0
-0.0046,0.1067,1.0535,-4.8626,4.2366,-0.0382,0,0,0
-0.0068,0.0994,1.0554,-5.2519,6.4427,0.3359,0,0,0
-0.0059,0.0959,1.0361,-3.9542,6.9618,0.7252,0,0,0
-0.021,0.1021,1.0254,-1.8473,5.4809,0.542,0,0,0
-0.0242,0.0999,1.0127,0.2366,3.1221,-0.5267,0,0,0
-0.0298,0.1052,1.0212,1.4122,0.8779,-1.2137,0,0,0
-0.0278,0.0972,1.0261,1.5115,0.3359,-1.0534,0,0,0
-0.0188,0.1003,1.0339,0.9084,1.5802,0.2977,0,0,0
-0.0176,0.0984,1.0359,0.0305,3.3359,1.1374,0,0,0
-0.0203,0.1069,1.0237,-0.1527,4.2977,1.9466,0,0,0
-0.0195,0.1162,1.0081,-0.4427,4.0153,1.5802,0,0,0
-0.0249,0.1213,0.9966,-0.5649,3.4427,0.1374,0,0,0
-0.0288,0.1201,0.9927,-1.3817,1.2748,-0.8702,0,0,0
-0.0315,0.1104,1.0081,-2.458,-0.0153,-1.3511,0,0,0
-0.0308,0.0999,1.0159,-3.7481,-0.1374,-0.6031,0,0,0
-0.0366,0.1013,1.0356,-4.5802,1.1374,0.5115,0,0,0
-0.0327,0.0945,1.0356,-3.7863,2.1985,1.5954,0,0,0
-0.0256,0.0996,1.0408,-2.5496,2.6565,2.2214,0,0,0
-0.0239,0.1121,1.0227,-0.5878,1.8397,1.8092,0,0,0
-0.0234,0.1191,1.0212,0.4656,0.7786,0.9313,0,0,0
-0.0181,0.1147,1.0115,0.8931,-0.7328,-0.4656,0,0,0
-0.0254,0.1106,1.0127,0.2061,-1.4427,-1.0153,0,0,0
-0.0286,0.1047,1.0344,-0.9542,-1.2443,-1.0687,0,0,0
-0.03,0.093,1.0381,-1.8397,-0.0229,-0.3511,0,0,0
-0.0276,0.0972,1.0347,-2.8397,1.9771,1.8473,0,0,0
-0.0217,0.0994,1.0283,-3.6336,2.3511,2.9466,0,0,0
-0.0249,0.115,1.0232,-3.0229,3.2748,3.2443,0,0,0
-0.0178,0.1218,1.0159,-2.6565,2.5344,1.6794,0,0,0
-0.0234,0.1245,1.02,-0.8626,1.3588,0.0305,0,0,0
-0.0247,0.1262,1.0151,1.3053,-0.0153,-2.0916,0,0,0
-0.0239,0.1172,1.0186,2.9924,-1.6565,-3.855,0,0,0
-0.0293,0.1145,1.0139,3.6336,-2.5496,-3.9237,0,0,0
-0.0239,0.1174,1.0159,3.542,-2.9084,-4.1145,0,0,0
-0.0208,0.1248,1.0305,3.1756,-2.4046,-3.5573,0,0,0
-0.0159,0.1306,1.0352,2.145,-0.7023,-4.1832,0,0,0
-0.0083,0.1326,1.0349,1.3511,0.6107,-5.2595,0,0,0
-0.011,0.1418,1.0322,0.5954,1.9313,-6.5802,0,0,0
-0.0071,0.1455,1.0278,0.7176,2.5878,-8.8015,0,0,0
-0.0112,0.1543,1.0364,0.9542,2.9084,-11.7481,0,0,0
-0.001,0.1545,1.0349,2.1374,2.9237,-14.6641,0,0,0
0.0083,0.1516,1.0405,2.2748,3.2977,-17.6718,0,0,0
0.0034,0.1531,1.0459,1.9771,5.1603,-20.5954,0,0,0
-0.0046,0.1592,1.0256,2.3435,6.7634,-24.3053,0,0,0
-0.0034,0.1572,1.0103,1.8244,5.9847,-28.7099,0,0,0
-0.0095,0.1438,1.0078,0.2824,5.9389,-31.1221,0,0,0
-0.0227,0.1401,1.0134,-0.7786,6.542,-34.2672,0,0,0
-0.0413,0.114,1.0112,-0.3588,7.2824,-35.1298,0,0,0
-0.0627,0.0886,1.0117,0.3435,7.2519,-33.916,0,0,0
-0.0784,0.0667,1.022,0.2519,6.3664,-30.6336,0,0,0
-0.0833,0.0596,1.0361,0.855,6.0763,-25.7786,0,0,0
-0.0818,0.0579,1.0537,3.2214,8.4504,-20.0916,0,0,0
-0.0833,0.0959,1.0398,5.5038,10.6336,-15.7939,0,0,0
-0.0737,0.104,1.0366,5.7328,9.5496,-12.7786,0,0,0
-0.0413,0.1379,1.0701,7.2366,9.8244,-11.1603,0,0,0
-0.0291,0.1541,1.0708,9.1298,11.4351,-12.374,0,0,0
-0.0229,0.178,1.0503,11.1527,13.2672,-15.7786,0,0,0
-0.0332,0.1782,1.0173,11.8321,12.6412,-20.5954,0,0,0
-0.0439,0.176,0.9929,12.4733,9.8473,-25.0229,0,0,0
-0.0483,0.1711,1.0037,13.2519,7.1069,-28.0305,0,0,0
-0.0486,0.1575,1.0295,13.7099,5.8244,-29.7023,0,0,0
-0.0525,0.1606,1.0227,12.7939,6.1221,-30.7557,0,0,0
-0.0586,0.177,1.0237,12.8473,7.0763,-31.8244,0,0,0
-0.0471,0.1858,1.0134,12.7252,7.6794,-32.687,0,0,0
-0.0479,0.1997,0.9866,10.9466,7.0229,-34.3206,0,0,0
-0.0562,0.2102,0.9709,8.4504,4.9847,-37.8168,0,0,0
-0.0754,0.198,0.9509,6.0534,3.2672,-41.6412,0,0,0
-0.0911,0.1799,0.9561,2.8855,0.7786,-43.7481,0,0,0
-0.1094,0.1445,0.9585,-0.916,0.2214,-43.084,0,0,0
-0.1201,0.1174,0.9634,-4.5878,0.4962,-39.1603,0,0,0
-0.1301,0.104,0.9771,-8.374,0.6947,-33.0611,0,0,0
-0.1296,0.0938,0.9885,-11.6412,1.5344,-27.313,0,0,0
-0.1265,0.0967,1.001,-13.1603,3.4885,-22.3893,0,0,0
-0.1235,0.1028,0.9949,-13.4351,3.9084,-18.8321,0,0,0
-0.1238,0.1082,0.9939,-12.4656,3.2672,-17.0,0,0,0
-0.113,0.1162,0.9924,-10.3511,1.5267,-16.2061,0,0,0
-0.0979,0.1179,0.9863,-7.9847,-1.1527,-16.1679,0,0,0
-0.0916,0.126,1.012,-6.7786,-2.8702,-17.1145,0,0,0
-0.0933,0.1187,1.0369,-6.8473,-2.7023,-18.1908,0,0,0
-0.094,0.1143,1.0547,-6.8855,-1.3969,-18.0916,0,0,0
-0.092,0.103,1.0398,-6.3053,-0.458,-17.229,0,0,0
-0.0977,0.1099,1.0422,-5.2595,-0.5191,-15.6565,0,0,0
-0.0962,0.115,1.0332,-3.8321,0.0382,-15.9771,0,0,0
-0.0886,0.1201,1.0193,-2.1756,-0.4275,-16.7634,0,0,0
-0.0823,0.1196,1.0242,-1.6107,-1.458,-17.5267,0,0,0
-0.0981,0.1277,1.0386,-0.855,-1.374,-18.9618,0,0,0
-0.0967,0.1191,1.0356,-0.1145,-0.9008,-19.6489,0,0,0
-0.0974,0.1155,1.0288,-0.6718,-0.4275,-19.2061,0,0,0
-0.0989,0.1074,1.032,-2.4962,0.8168,-18.0229,0,0,0
-0.1113,0.1018,1.0364,-4.9389,2.8015,-16.1908,0,0,0
-0.116,0.0974,1.0283,-6.7481,5.229,-13.9771,0,0,0
-0.1155,0.0911,1.031,-7.0229,6.4275,-11.458,0,0,0
-0.1187,0.0894,1.0264,-7.2672,6.8931,-9.4809,0,0,0
-0.1245,0.0938,1.0076,-5.8397,6.6031,-8.7328,0,0,0
-0.1272,0.0859,0.99,-4.5038,4.0305,-8.6489,0,0,0
-0.1335,0.0874,0.9961,-4.2137,2.0687,-8.3206,0,0,0
-0.1365,0.0718,0.9976,-4.5267,0.5878,-6.8779,0,0,0
-0.1406,0.0559,1.0129,-5.6107,0.7252,-4.145,0,0,0
-0.1475,0.0525,1.0244,-6.3893,1.8473,-0.2748,0,0,0
-0.1472,0.0488,1.0254,-6.9237,2.8015,3.9466,0,0,0
-0.1399,0.0491,1.0071,-7.2519,3.145,7.458,0,0,0
-0.1418,0.0508,1.0095,-7.3511,2.4656,9.7023,0,0,0
-0.1387,0.0552,0.9917,-6.7405,1.1908,11.3282,0,0,0
-0.1357,0.0549,1.0005,-6.1374,-1.3053,12.7939,0,0,0
-0.1375,0.0547,1.0054,-4.9847,-2.7405,14.2977,0,0,0
-0.1426,0.0376,1.0139,-4.1221,-4.2977,16.6107,0,0,0
-0.1458,0.021,1.0203,-2.8473,-4.9924,20.4656,0,0,0
-0.1477,0.019,1.021,-1.4809,-5.3511,25.5649,0,0,0
-0.1487,0.019,1.0183,-0.3893,-5.7557,30.4351,0,0,0
-0.1426,0.0313,1.0115,0.916,-6.5573,35.2214,0,0,0
-0.1313,0.043,1.0046,1.9008,-7.5802,39.4198,0,0,0
-0.1138,0.0554,1.01,2.8626,-8.6718,42.4427,0,0,0
-0.1084,0.0742,1.0171,3.1832,-8.6183,44.374,0,0,0
-0.0879,0.0867,1.0171,2.855,-9.626,45.687,0,0,0
-0.085,0.1001,1.0276,2.3588,-9.8015,46.0916,0,0,0
-0.0796,0.1223,1.0266,2.0153,-9.3969,46.4046,0,0,0
-0.0654,0.1323,1.0237,2.1985,-9.1832,45.2824,0,0,0
-0.0566,0.1384,1.0347,0.9084,-8.4275,44.145,0,0,0
-0.0615,0.136,1.0349,0.1145,-7.9237,43.1832,0,0,0
-0.0674,0.1411,1.0339,-0.6336,-6.8702,43.2824,0,0,0
-0.0608,0.1331,1.0476,-1.2443,-5.6107,44.5954,0,0,0
-0.0591,0.1497,1.042,-1.3817,-3.916,45.3359,0,0,0
-0.051,0.1492,1.0186,-3.0687,-1.9237,45.5954,0,0,0
-0.0591,0.1602,1.0049,-5.7023,-1.4504,44.6031,0,0,0
-0.0771,0.1611,0.99,-9.916,-3.0687,43.687,0,0,0
-0.0664,0.1389,0.9841,-10.374,-5.0153,44.3435,0,0,0
-0.0649,0.1443,0.9932,-11.6107,-6.5649,44.916,0,0,0
-0.0566,0.1296,1.0193,-12.4351,-7.3969,44.7939,0,0,0
-0.0564,0.1238,1.0391,-13.3435,-5.8931,44.8855,0,0,0
-0.0583,0.1123,1.0425,-15.229,-4.8092,46.2061,0,0,0
-0.0566,0.0908,1.0466,-16.1908,-3.1908,49.0534,0,0,0
-0.0586,0.1077,1.0459,-17.6183,-1.8321,51.7099,0,0,0
-0.0571,0.1023,1.0427,-17.916,-0.4275,53.5878,0,0,0
-0.0552,0.1172,1.0352,-16.1908,0.5267,53.7328,0,0,0
-0.0352,0.1213,1.0071,-15.0076,-0.4427,52.1756,0,0,0
-0.0264,0.1416,1.0173,-14.3053,-1.9924,49.0382,0,0,0
-0.0391,0.1384,1.0251,-15.5344,-2.374,45.7634,0,0,0
-0.0334,0.1179,1.043,-14.6336,-2.2214,43.9466,0,0,0
-0.0264,0.1023,1.0405,-14.8244,-1.5573,42.687,0,0,0
-0.0381,0.1104,1.0288,-15.2595,-0.1069,42.4198,0,0,0
-0.0381,0.1069,1.0142,-17.4885,0.542,41.8015,0,0,0
-0.0303,0.1013,1.0286,-19.4656,3.313,41.7405,0,0,0
-0.0276,0.0945,1.0288,-21.145,6.4809,41.7939,0,0,0
-0.0315,0.0981,1.0256,-22.1832,8.0,42.0458,0,0,0
-0.0398,0.1003,1.0115,-22.9084,8.6412,40.8321,0,0,0
-0.0442,0.1001,1.0134,-21.8092,8.4351,38.8702,0,0,0
-0.0391,0.095,0.9939,-20.8168,7.0229,36.9847,0,0,0
-0.03,0.1001,0.9937,-18.687,5.0763,35.374,0,0,0
-0.0222,0.1069,1.0171,-15.855,3.2977,32.084,0,0,0
-0.0203,0.125,1.0137,-12.0992,1.4962,27.9542,0,0,0
-0.009,0.1313,1.0261,-8.8244,-0.4122,21.9008,0,0,0
-0.0012,0.1335,1.0376,-3.9771,-2.6412,15.3359,0,0,0
-0.0049,0.1443,1.0491,1.1069,-4.0382,7.6947,0,0,0
-0.0051,0.1458,1.052,4.7481,-5.2443,0.9389,0,0,0
-0.0059,0.1414,1.0398,6.0611,-6.1756,-4.6031,0,0,0
-0.0112,0.1299,1.0444,5.0763,-5.5725,-8.6183,0,0,0
-0.0249,0.1177,1.05,3.4733,-4.0153,-10.8473,0,0,0
-0.0422,0.0952,1.0444,0.8702,-2.1221,-10.9542,0,0,0
-0.051,0.0813,1.0352,-0.9924,-0.4275,-9.9542,0,0,0
-0.0588,0.0649,1.0591,-3.1679,1.7252,-7.1832,0,0,0
-0.0623,0.0652,1.0481,-4.7557,4.458,-4.8855,0,0,0
-0.0588,0.0698,1.0322,-5.0153,5.916,-3.3053,0,0,0
-0.0608,0.0815,1.0193,-4.313,6.1603,-2.9313,0,0,0
-0.0518,0.0847,1.0085,-3.542,4.6412,-3.8931,0,0,0
-0.0518,0.0823,1.0215,-1.7634,3.1603,-4.6412,0,0,0
-0.0652,0.0776,1.0044,0.3282,1.4198,-5.5267,0,0,0
-0.0654,0.0703,0.9993,1.8702,-1.3588,-5.9924,0,0,0
-0.0608,0.064,0.9949,1.9466,-3.5573,-5.4504,0,0,0
-0.0544,0.0562,1.0129,0.9924,-4.2595,-4.2519,0,0,0
-0.0535,0.0645,1.0432,0.4122,-2.7634,-3.1374,0,0,0
-0.0518,0.0728,1.0437,-0.4733,-0.7023,-1.9542,0,0,0
-0.0474,0.0762,1.0281,-1.8015,0.5954,-1.1679,0,0,0
-0.0437,0.0762,1.0283,-3.6336,1.4962,-0.4351,0,0,0
-0.0535,0.0837,1.0244,-3.3969,1.9924,-0.8015,0,0,0
-0.0547,0.0845,1.0127,-1.6336,0.7634,-2.2672,0,0,0
-0.0557,0.0813,1.0264,1.1679,-1.7405,-3.9313,0,0,0
-0.0566,0.0708,1.0281,4.1756,-3.8321,-5.3206,0,0,0
-0.0569,0.0715,1.0195,6.9542,-5.4275,-6.1985,0,0,0
-0.0537,0.0713,1.0142,8.1756,-6.5496,-6.1985,0,0,0
-0.0474,0.0706,1.0208,7.5267,-6.1756,-6.1374,0,0,0
-0.0442,0.0752,1.04,5.687,-4.1221,-5.084,0,0,0
-0.0522,0.0759,1.0347,2.229,-1.6031,-4.3282,0,0,0
-0.0481,0.0737,1.033,0.1527,0.2595,-2.8168,0,0,0
-0.0549,0.0779,1.0142,-0.3817,0.7252,-1.8931,0,0,0
-0.0571,0.0815,1.0066,-0.7634,0.0076,-1.6107,0,0,0
-0.0483,0.0835,1.0215,-1.0,-1.2366,-1.5954,0,0,0
-0.0466,0.0862,1.0374,-0.6031,-1.2901,-2.5344,0,0,0
-0.0486,0.0847,1.0405,0.9008,-0.1908,-3.2977,0,0,0
-0.0444,0.0879,1.0278,1.3893,-0.084,-4.0,0,0,0
-0.041,0.092,1.0166,1.2137,-0.3359,-4.1832,0,0,0
-0.0508,0.1011,1.0291,0.7557,0.2977,-5.374,0,0,0
-0.054,0.1013,1.0105,0.3282,-0.2214,-6.1679,0,0,0
-0.0532,0.0833,1.0178,-0.458,-0.4962,-6.1527,0,0,0
-0.0535,0.0869,1.0222,0.2672,-1.0763,-6.3359,0,0,0
-0.0479,0.0881,1.0359,0.9771,-1.7328,-6.6412,0,0,0
-0.0454,0.0872,1.042,2.542,-1.5267,-7.229,0,0,0
-0.0457,0.0955,1.0337,3.8244,-1.7252,-7.9466,0,0,0
-0.0557,0.0996,1.0095,4.6718,-2.4733,-9.1069,0,0,0
-0.0535,0.0947,1.0081,4.1527,-3.6641,-9.5954,0,0,0
-0.0513,0.0923,1.0032,2.0687,-3.8168,-8.9237,0,0,0
-0.0522,0.0862,1.0259,-0.9237,-3.0534,-7.7252,0,0,0
-0.0464,0.0796,1.0371,-4.1374,-0.5649,-5.5878,0,0,0
-0.0437,0.0774,1.0427,-6.6183,1.9313,-3.855,0,0,0
-0.0403,0.0735,1.0347,-6.6183,2.9924,-2.3817,0,0,0
-0.0505,0.0894,1.032,-4.3969,3.4275,-2.3969,0,0,0
-0.053,0.0974,1.0085,-1.8931,1.3359,-4.0153,0,0,0
-0.0576,0.0996,1.0029,0.5115,-1.6489,-5.6565,0,0,0
-0.054,0.1025,1.0015,2.1756,-4.2824,-7.1679,0,0,0
-0.0515,0.0928,1.011,1.7176,-5.5038,-7.5954,0,0,0
-0.0491,0.0845,1.0229,0.6947,-5.0458,-7.7939,0,0,0
-0.0425,0.0881,1.0325,-1.3817,-3.374,-6.9847,0,0,0
-0.0405,0.0815,1.0398,-2.6489,-1.7099,-6.229,0,0,0
-0.0364,0.083,1.0542,-2.9084,0.6336,-5.8168,0,0,0
-0.0435,0.0967,1.0327,-1.8473,1.2977,-5.8015,0,0,0
-0.0464,0.1008,1.0151,-0.4809,0.2595,-6.7863,0,0,0
-0.0471,0.1099,1.0085,0.2061,-1.6107,-8.0534,0,0,0
-0.0442,0.1108,1.01,-0.0305,-2.9924,-10.0382,0,0,0
-0.0374,0.1038,1.0129,-0.3206,-3.4962,-11.1832,0,0,0
-0.0364,0.1016,1.021,-0.5267,-3.3817,-11.7786,0,0,0
-0.0344,0.0918,1.0588,0.4809,-2.5954,-12.1908,0,0,0
-0.0388,0.0867,1.0669,2.771,-1.0,-12.8626,0,0,0
-0.0469,0.0969,1.05,5.6489,0.7099,-13.0611,0,0,0
-0.0508,0.0984,1.0222,7.4046,0.9466,-13.7405,0,0,0
-0.0479,0.1016,0.9954,6.9313,-0.6565,-14.626,0,0,0
-0.0439,0.1104,0.991,3.2214,-1.4351,-15.1985,0,0,0
-0.0466,0.1077,1.0063,-0.8473,-1.6031,-15.9237,0,0,0
-0.0457,0.0962,1.0347,-3.5191,0.3053,-15.6794,0,0,0
-0.0569,0.0786,1.0444,-4.6565,2.5725,-14.8321,0,0,0
-0.0632,0.0708,1.04,-3.3435,3.8015,-13.2137,0,0,0
-0.0684,0.0757,1.0288,-1.3511,3.1527,-11.7939,0,0,0
-0.0703,0.0837,1.0178,0.2214,1.5649,-10.6489,0,0,0
-0.0701,0.0842,1.0022,0.4122,-0.084,-9.7252,0,0,0
-0.0659,0.0732,1.0103,-0.542,-1.2443,-8.9389,0,0,0
-0.0586,0.0818,1.0374,-1.1908,-0.0305,-7.5649,0,0,0
-0.0598,0.0798,1.0505,-1.2595,2.0076,-6.2901,0,0,0
-0.0557,0.082,1.0369,-0.6641,2.3664,-5.3969,0,0,0
-0.0593,0.0857,1.0366,0.1527,2.3817,-4.9924,0,0,0
-0.0549,0.0959,1.0288,0.9466,1.9924,-4.9771,0,0,0
-0.0535,0.0999,1.011,1.7939,0.7099,-5.7405,0,0,0
-0.053,0.1062,1.0283,2.2595,-0.2137,-6.916,0,0,0
-0.0488,0.1104,1.02,1.7176,-0.3664,-7.7328,0,0,0
-0.0547,0.1042,1.0205,0.7786,-0.0534,-7.9695,0,0,0
-0.0615,0.0935,1.0273,0.2443,0.3817,-7.687,0,0,0
-0.0576,0.0796,1.0251,-0.2137,1.1832,-6.3664,0,0,0
-0.0601,0.0823,1.0315,-0.6489,1.8931,-4.6489,0,0,0
-0.0627,0.0881,1.0269,-0.6718,2.4733,-3.3588,0,0,0
-0.0688,0.0935,1.0076,-0.5267,1.8397,-2.5954,0,0,0
-0.0664,0.0923,1.0017,-0.3282,1.3053,-2.4504,0,0,0
-0.0596,0.0969,1.02,-0.0611,0.5038,-2.0,0,0,0
-0.0649,0.0994,1.0066,0.3588,0.4733,-1.9924,0,0,0
-0.0662,0.104,1.0007,0.7939,0.4122,-2.5115,0,0,0
-0.0605,0.0942,1.0073,0.5267,-0.4809,-2.9847,0,0,0
-0.0654,0.0989,1.0181,-0.0992,-1.084,-2.7023,0,0,0
-0.072,0.0938,1.0117,-0.4733,-0.8779,-2.3053,0,0,0
-0.0667,0.0918,1.0129,-1.3893,-1.229,-1.4046,0,0,0
-0.063,0.0872,1.04,-1.6794,-1.1985,-0.8168,0,0,0
-0.0623,0.0876,1.0554,-0.8015,0.5344,-0.0763,0,0,0
-0.0637,0.095,1.0339,0.2366,0.7023,0.2214,0,0,0
-0.064,0.114,1.0125,-0.0076,0.229,0.2824,0,0,0
-0.062,0.1121,1.0115,-0.3053,-0.0076,-0.2061,0,0,0
-0.0552,0.1101,1.0149,-1.1603,-0.6412,-0.9313,0,0,0
-0.0564,0.1099,1.0256,-1.3282,-0.0458,-0.5954,0,0,0
-0.0605,0.1177,1.0139,-0.9695,-0.0076,-0.9389,0,0,0
-0.0671,0.115,0.9973,-1.2061,-1.4427,-1.4198,0,0,0
-0.0688,0.1152,1.0171,-1.8473,-1.5344,-1.5954,0,0,0
-0.0667,0.1111,1.0225,-2.3511,-0.9771,-1.5344,0,0,0
-0.0559,0.1033,1.0337,-2.5954,0.3893,-0.9695,0,0,0
-0.0601,0.1118,1.0212,-2.7023,1.1374,-0.542,0,0,0
-0.0598,0.1145,1.0161,-2.5496,0.5267,-0.7252,0,0,0
-0.0583,0.1189,1.0144,-2.084,-0.3435,-1.5878,0,0,0
-0.0637,0.1145,1.0151,-1.8015,-1.2137,-2.0992,0,0,0
-0.0569,0.1096,1.02,-1.8321,-2.374,-2.5802,0,0,0
-0.061,0.1035,1.0457,-0.7099,-1.6412,-3.2214,0,0,0
-0.0581,0.0896,1.043,-0.5344,-0.7328,-2.542,0,0,0
-0.0588,0.0959,1.0332,-0.9618,0.3511,-1.9924,0,0,0
-0.0637,0.093,1.0195,-1.3282,1.2824,-2.3817,0,0,0
-0.0671,0.0957,1.0244,-2.5267,1.2366,-2.1145,0,0,0
-0.071,0.0962,1.0222,-2.4198,0.9771,-1.7481,0,0,0
-0.072,0.0962,1.0183,-1.7863,0.1298,-0.8931,0,0,0
-0.0706,0.0952,1.0161,-1.2748,-0.1908,-0.3969,0,0,0
-0.0579,0.0957,1.0278,-0.9924,-0.7023,0.3206,0,0,0
-0.0574,0.1118,1.0295,-0.9542,0.0153,0.5573,0,0,0
-0.0574,0.115,1.0298,-1.3435,0.7023,0.2061,0,0,0
-0.0527,0.1135,1.0325,-1.2595,0.916,-1.1908,0,0,0
-0.0601,0.1169,1.0303,-1.2443,0.6794,-2.084,0,0,0
-0.0667,0.1069,1.0181,-1.2137,0.6794,-2.4962,0,0,0
-0.0593,0.1018,1.0176,-1.3206,0.1908,-2.3588,0,0,0
-0.0613,0.1013,1.0261,-1.8626,0.4656,-1.458,0,0,0
-0.0601,0.1086,1.0371,-2.1221,1.8702,-1.0611,0,0,0
-0.0588,0.1096,1.0393,-2.7023,3.2672,-0.7176,0,0,0
-0.0642,0.1121,1.0369,-2.2824,5.1908,-0.6031,0,0,0
-0.0703,0.1055,1.0073,-2.2366,4.5267,-0.6336,0,0,0
-0.0669,0.1147,1.0032,-2.1756,3.1908,-1.0916,0,0,0
-0.062,0.1069,0.9883,-1.6412,2.0611,-1.1603,0,0,0
-0.072,0.1052,0.9971,-2.313,0.1221,-1.7405,0,0,0
-0.0681,0.1113,1.0046,-2.5191,-0.6947,-2.2595,0,0,0
-0.0676,0.1045,1.0278,-3.0916,-0.1527,-2.3588,0,0,0
-0.0698,0.0974,1.0359,-2.7863,1.0534,-2.0458,0,0,0
-0.0723,0.1001,1.033,-2.3053,1.6336,-2.1908,0,0,0
-0.075,0.093,1.012,-1.3588,1.3893,-1.6412,0,0,0
-0.0823,0.0977,1.0098,-0.8855,0.0458,-1.4427,0,0,0
-0.0728,0.0967,1.0183,-0.855,-0.7557,-1.3206,0,0,0
-0.0718,0.0981,1.0347,-1.542,-0.7176,-0.9542,0,0,0
-0.0667,0.1038,1.03,-2.1069,0.2595,-0.5573,0,0,0
-0.0696,0.1091,1.0325,-2.7863,0.6794,-0.8092,0,0,0
-0.0681,0.1052,1.0396,-3.6183,0.9771,-1.1832,0,0,0
-0.0676,0.0986,1.0295,-2.3435,0.9618,-1.313,0,0,0
-0.0774,0.1016,1.0195,-1.4351,-0.0458,-1.542,0,0,0
-0.0706,0.1025,1.0154,-1.3511,-1.3359,-1.8931,0,0,0
-0.0696,0.0996,1.0254,-1.9313,-0.6031,-1.5878,0,0,0
-0.0725,0.0955,1.0364,-1.3893,0.7176,-1.5267,0,0,0
-0.0686,0.0903,1.0286,-0.7023,1.5191,-0.5267,0,0,0
-0.073,0.1013,1.0144,0.0458,0.7634,0.2214,0,0,0
-0.0742,0.115,1.0027,0.7481,-0.6794,-0.2137,0,0,0
-0.0803,0.1187,1.0005,0.7176,-1.7481,-1.3511,0,0,0
-0.073,0.1165,1.0005,-0.1832,-2.2595,-2.8015,0,0,0
-0.0657,0.103,1.011,-1.6183,-2.2519,-2.6641,0,0,0
-0.062,0.1013,1.021,-3.2137,-0.6412,-1.8702,0,0,0
-0.0713,0.0964,1.0295,-4.313,0.6794,-0.9924,0,0,0
-0.0759,0.0977,1.0217,-4.6947,1.5191,-0.458,0,0,0
-0.0703,0.0916,1.0103,-4.1756,1.2595,0.2901,0,0,0
-0.0735,0.1064,0.9985,-2.1679,-0.8855,0.3282,0,0,0
-0.0747,0.1011,0.9897,0.6031,-4.5954,-0.7481,0,0,0
-0.0681,0.1072,0.9995,2.229,-7.8473,-1.4427,0,0,0
-0.0706,0.1084,1.03,2.0992,-7.9008,-1.7405,0,0,0
-0.063,0.1106,1.0425,0.5191,-6.1527,-1.6794,0,0,0
-0.0583,0.1011,1.0413,-2.229,-3.145,-1.4733,0,0,0
-0.0696,0.0996,1.0439,-3.9237,-0.313,-0.5649,0,0,0
-0.0762,0.0945,1.01,-4.3206,-0.0153,-0.0763,0,0,0
-0.0781,0.0974,0.9985,-3.1527,-2.8473,-0.1679,0,0,0
-0.0769,0.1001,1.0024,-1.2519,-6.0916,-0.1145,0,0,0
-0.0728,0.1064,1.0132,0.1527,-7.7939,-0.4198,0,0,0
-0.0693,0.1104,1.0103,0.2595,-8.3969,-0.8092,0,0,0
-0.0693,0.1086,1.0029,-0.6641,-8.9695,-1.2595,0,0,0
-0.0693,0.1057,0.9995,-1.9313,-8.7481,-0.6489,0,0,0
-0.0671,0.0945,1.0093,-3.7176,-8.5115,0.2595,0,0,0
-0.0667,0.0908,1.0149,-4.9695,-7.5038,1.4046,0,0,0
-0.0586,0.0977,1.043,-4.2672,-6.5649,2.2519,0,0,0
-0.052,0.0962,1.0525,-3.2977,-5.0153,2.4885,0,0,0
-0.0457,0.115,1.0415,-2.2977,-4.6107,2.4198,0,0,0
-0.0378,0.1248,1.0264,-2.0687,-3.8473,1.1603,0,0,0
-0.0386,0.1328,1.0127,-1.771,-3.9008,-0.8015,0,0,0
-0.0398,0.1204,1.0051,-3.0382,-4.3282,-3.0382,0,0,0
-0.0425,0.104,1.0344,-4.0916,-4.1908,-3.4885,0,0,0
-0.0476,0.0881,1.0464,-4.3206,-3.1679,-2.8931,0,0,0
-0.0422,0.0776,1.0566,-3.9389,-2.2366,-1.6565,0,0,0
-0.0449,0.0835,1.0691,-3.2443,-0.3359,0.2595,0,0,0
-0.0447,0.093,1.0513,-2.4198,1.7481,0.8931,0,0,0
-0.0518,0.1047,1.0212,-1.8855,1.3969,0.2672,0,0,0
-0.0549,0.1089,1.0144,-1.2901,0.2977,-1.0305,0,0,0
-0.0498,0.1013,1.0312,-1.3588,-0.9695,-1.5878,0,0,0
-0.0549,0.1001,1.0374,-0.6107,-0.4809,-1.7405,0,0,0
-0.0537,0.0969,1.0449,-0.0305,0.4427,-1.3282,0,0,0
-0.0483,0.0925,1.0337,0.1603,0.8168,-0.9695,0,0,0
-0.053,0.1038,1.0332,0.0534,0.5115,-1.0382,0,0,0
-0.0515,0.1011,1.0149,-0.1527,0.1298,-0.7786,0,0,0
-0.0471,0.0986,1.0115,-1.4733,-0.2443,-0.7023,0,0,0
-0.052,0.1038,1.0317,-1.5725,0.1985,-0.855,0,0,0
-0.0532,0.1101,1.0388,-1.5802,1.3664,-0.542,0,0,0
-0.052,0.1028,1.0195,-1.1756,1.2443,-0.5802,0,0,0
-0.0564,0.1106,1.0117,-0.7481,0.5878,-0.9771,0,0,0
-0.0571,0.1082,0.9983,-0.4733,-0.2519,-1.1832,0,0,0
-0.0591,0.0977,1.0112,-0.916,-1.0763,-1.5496,0,0,0
-0.0586,0.0996,1.0095,-1.2061,-2.0687,-1.3053,0,0,0
-0.0547,0.0962,1.0042,-1.0229,-2.4275,-0.5649,0,0,0
-0.0498,0.0972,1.0205,-1.1527,-2.3588,0.7786,0,0,0
-0.0461,0.1101,1.0283,-1.9008,-1.3282,1.3588,0,0,0
-0.04,0.1157,1.0305,-2.9389,0.4046,0.8397,0,0,0
-0.0425,0.1172,1.0193,-3.6794,1.2901,-0.8092,0,0,0
-0.0474,0.1079,1.0042,-3.8244,0.4351,-2.0611,0,0,0
-0.051,0.093,1.0234,-3.0458,-0.4733,-2.4656,0,0,0
-0.0613,0.0837,1.0356,-1.687,-1.3511,-1.9618,0,0,0
-0.0615,0.0881,1.0374,-0.2672,-1.8626,-0.9084,0,0,0
-0.0569,0.0935,1.0454,0.0763,-1.6794,0.4122,0,0,0
-0.0525,0.1052,1.0325,0.145,-1.4046,0.4656,0,0,0
-0.0496,0.1145,1.0239,-0.2519,-1.2748,0.0687,0,0,0
-0.0486,0.1172,1.0312,-1.626,-1.1298,-0.7252,0,0,0
-0.0527,0.1064,1.0342,-2.0916,-0.2901,-1.229,0,0,0
-0.0537,0.1038,1.0488,-2.2901,0.229,-1.2519,0,0,0
-0.0525,0.1013,1.0398,-1.6183,1.5344,-0.9389,0,0,0
-0.0527,0.1084,1.02,-1.9695,1.2137,-1.084,0,0,0
-0.0532,0.113,1.0073,-1.3588,0.229,-1.1069,0,0,0
-0.0557,0.1091,1.0022,-2.2824,-0.6718,-1.8702,0,0,0
-0.0591,0.1001,1.0078,-2.6107,-1.5802,-1.8397,0,0,0
-0.0623,0.0938,1.0134,-2.7405,-1.9695,-1.4733,0,0,0
-0.0632,0.0874,0.9995,-2.8015,-2.8473,-0.8779,0,0,0
-0.0559,0.0947,1.0032,-3.313,-3.2595,-0.145,0,0,0
-0.0574,0.0959,0.9971,-3.5115,-4.0229,0.6107,0,0,0
-0.0562,0.1052,0.9836,-4.0229,-4.6183,0.6107,0,0,0
-0.0557,0.1106,0.991,-5.4733,-6.1145,0.4656,0,0,0
-0.0537,0.1089,1.0056,-6.5954,-6.9237,0.3588,0,0,0
-0.0527,0.1028,1.0151,-7.2443,-7.1221,-0.1374,0,0,0
-0.0515,0.0964,1.0171,-7.7481,-7.1374,0.2672,0,0,0
-0.0383,0.0845,1.0134,-8.0992,-8.4046,1.374,0,0,0
-0.0359,0.1082,1.0227,-6.3588,-7.8397,1.4733,0,0,0
-0.031,0.106,1.0435,-7.0763,-7.2519,0.4046,0,0,0
-0.0269,0.104,1.0649,-6.7023,-5.4733,-0.1985,0,0,0
-0.0256,0.0938,1.0518,-6.0687,-4.3664,-0.4733,0,0,0
-0.0276,0.094,1.0774,-4.1145,-3.9313,-0.2824,0,0,0
-0.0261,0.0923,1.092,-2.1985,-2.1527,-0.2824,0,0,0
-0.0293,0.0898,1.0894,0.7252,-0.7863,-0.8702,0,0,0
-0.0349,0.0935,1.0764,2.7252,0.4809,-1.5802,0,0,0
-0.0459,0.1047,1.0491,3.9466,0.0611,-2.2137,0,0,0
-0.0447,0.0977,1.0342,3.4427,-1.6183,-2.7557,0,0,0
-0.0535,0.082,1.0369,2.4504,-3.1527,-2.0382,0,0,0
-0.0615,0.0754,1.0479,2.855,-3.4885,-1.458,0,0,0
-0.0645,0.0723,1.0491,2.7634,-4.2214,0.2672,0,0,0
-0.0659,0.0667,1.0498,2.6794,-3.6641,2.8015,0,0,0
-0.0706,0.0664,1.0208,1.9237,-4.5649,5.1527,0,0,0
-0.0757,0.0784,0.9917,2.2595,-7.5954,6.9847,0,0,0
-0.0796,0.0798,0.9832,2.313,-11.3664,7.9389,0,0,0
-0.0635,0.0667,0.9861,2.1374,-14.9237,8.5115,0,0,0
-0.0593,0.0764,1.0356,1.5191,-15.6031,8.626,0,0,0
-0.0566,0.0718,1.053,0.0916,-12.9924,9.3664,0,0,0
-0.0481,0.0662,1.021,-1.5573,-11.8244,11.0611,0,0,0
-0.0374,0.0632,1.0107,-3.6718,-13.1145,13.2061,0,0,0
-0.0212,0.0808,1.0398,-3.5496,-12.7023,15.1603,0,0,0
-0.0159,0.0938,1.0542,-4.9237,-10.374,15.0687,0,0,0
-0.0122,0.0989,1.0452,-7.1298,-8.0382,14.1679,0,0,0
0.0005,0.1079,1.0427,-10.1832,-6.8015,13.5267,0,0,0
-0.0029,0.0994,1.0393,-10.5649,-7.0382,12.6412,0,0,0
-0.0105,0.1013,1.0432,-9.5038,-7.6336,11.0763,0,0,0
-0.0071,0.1016,1.054,-5.7099,-8.7939,9.7328,0,0,0
0.0027,0.1091,1.0776,-2.5878,-9.0992,7.5038,0,0,0
0.0024,0.1133,1.0752,0.084,-8.5115,5.9237,0,0,0
0.0161,0.1042,1.0698,3.1298,-9.0916,4.7405,0,0,0
0.0117,0.1067,1.0522,4.9618,-9.8931,3.9695,0,0,0
0.0059,0.1082,1.0386,6.542,-11.0076,3.3969,0,0,0
-0.0146,0.1135,1.0154,8.2366,-13.3053,1.8779,0,0,0
-0.0129,0.1067,0.9824,9.5649,-17.7939,1.9237,0,0,0
0.0085,0.1055,1.0107,12.6947,-20.9695,2.9618,0,0,0
0.0215,0.1086,1.0615,13.1679,-20.5191,4.2519,0,0,0
0.0354,0.1279,1.0867,13.5649,-16.7328,5.2519,0,0,0
0.0427,0.1555,1.0728,11.7634,-11.8473,5.5954,0,0,0
0.0486,0.1729,1.0452,9.2672,-7.7176,4.6107,0,0,0
0.0503,0.1736,1.0095,7.771,-5.9084,2.4122,0,0,0
0.0334,0.1841,0.9524,6.855,-7.9313,-0.7557,0,0,0
0.0149,0.1768,0.9236,5.6947,-12.6641,-4.0076,0,0,0
0.01,0.1589,0.9309,4.5191,-17.2672,-5.9771,0,0,0
0.02,0.1501,0.9639,1.6794,-18.4046,-6.2366,0,0,0
0.0269,0.1443,0.978,-4.6336,-14.3206,-4.0382,0,0,0
0.0229,0.1541,0.946,-11.084,-11.6107,-2.5191,0,0,0
0.0117,0.1504,0.9167,-17.1603,-13.4962,-1.9084,0,0,0
0.0239,0.1375,0.9202,-20.6794,-16.7099,-1.3511,0,0,0
0.0378,0.134,0.9551,-24.8015,-17.7405,-0.6641,0,0,0
0.0493,0.1382,0.9658,-29.0916,-17.3206,-0.5573,0,0,0
0.061,0.1541,0.9834,-32.374,-15.7557,-1.3969,0,0,0
0.0498,0.1646,0.9712,-37.2824,-16.1527,-5.6031,0,0,0
0.0625,0.1306,1.0278,-44.4275,-17.6107,-12.2366,0,0,0
0.0681,0.0522,1.1404,-49.4962,-13.2672,-17.8931,0,0,0
0.0181,-0.0068,1.166,-46.7099,-3.7099,-18.1679,0,0,0
0.0073,-0.0847,1.1038,-36.3435,-0.6412,-11.5573,0,0,0
0.0288,-0.0789,1.0361,-24.4733,-6.9847,-3.1527,0,0,0
0.0479,-0.0154,1.0317,-15.6336,-15.7481,1.1832,0,0,0
0.0791,0.0317,1.0703,-9.5496,-19.4733,-0.3511,0,0,0
0.1116,0.0618,1.1074,-7.9237,-16.6336,-3.1985,0,0,0
0.1304,0.0642,1.1028,-10.2748,-8.8931,-4.1756,0,0,0
0.1345,0.0674,1.0808,-12.8855,-1.9237,-3.3435,0,0,0
0.1184,0.0674,1.0398,-13.0382,1.6641,-3.0992,0,0,0
0.1042,0.0635,1.0164,-10.8092,0.9542,-4.313,0,0,0
0.0994,0.0645,1.0046,-6.0382,-0.3282,-6.1145,0,0,0
0.0901,0.0713,0.9832,-1.3817,-3.1756,-8.7099,0,0,0
0.0933,0.071,0.9385,2.8244,-7.5344,-10.458,0,0,0
0.0938,0.0828,0.9075,3.5344,-13.2748,-11.8397,0,0,0
0.0879,0.0811,0.9236,1.1603,-16.9466,-12.5878,0,0,0
0.0825,0.0713,0.9302,-1.5878,-18.4885,-13.1069,0,0,0
0.0808,0.0515,0.9353,-3.2519,-19.8092,-13.5038,0,0,0
0.0979,0.031,1.0002,-4.7405,-19.6641,-12.7252,0,0,0
0.1013,0.0176,1.0691,-7.5115,-14.4275,-10.8779,0,0,0
0.0969,-0.0049,1.1062,-7.6641,-5.1145,-7.5573,0,0,0
0.094,0.0056,1.0593,-11.3206,0.4198,-2.6794,0,0,0
0.1143,0.0171,1.0259,-11.9847,2.3817,1.2748,0,0,0
0.1182,0.0378,0.989,-11.9618,1.7099,2.1069,0,0,0
0.1143,0.0437,0.9741,-11.1679,-0.8168,-0.5496,0,0,0
0.1104,0.03,0.9875,-9.7176,-3.2977,-3.0687,0,0,0
0.1064,0.0068,1.0361,-5.9771,-4.4962,-4.313,0,0,0
0.1067,0.0002,1.0703,-0.7099,-2.5191,-3.4656,0,0,0
0.1116,-0.0032,1.0635,1.9542,-1.5344,-1.4504,0,0,0
0.1221,0.0164,1.0518,3.1985,0.0992,0.2137,0,0,0
0.1238,0.0344,1.0447,3.2672,1.7099,0.084,0,0,0
0.1143,0.0408,1.021,3.7023,2.4275,-1.5954,0,0,0
0.1016,0.0342,1.0044,3.8702,1.4427,-3.0076,0,0,0
0.0911,0.021,1.0098,4.0611,-0.0382,-2.9008,0,0,0
0.0845,0.0098,1.0039,3.687,-1.2672,-1.0458,0,0,0
0.0813,0.0112,1.0066,2.4962,-2.6489,1.4351,0,0,0
0.0764,0.022,1.0134,0.9695,-2.8779,3.8855,0,0,0
0.0854,0.0295,1.0215,-0.0076,-2.6718,4.7252,0,0,0
0.0977,0.0393,1.0295,-1.8931,-2.3588,5.8779,0,0,0
0.1021,0.0549,1.021,-2.1374,-1.6794,5.7939,0,0,0
0.0991,0.0515,1.03,-1.229,-2.5496,4.2748,0,0,0
0.1069,0.0535,1.0283,-0.9847,-2.9771,3.1145,0,0,0
0.0999,0.05,1.0356,-1.4122,-2.8397,2.1298,0,0,0
0.0977,0.0447,1.0437,-1.5191,-2.0687,1.5878,0,0,0
0.0884,0.0469,1.0349,-1.0687,-2.1069,1.2214,0,0,0
0.1016,0.0381,1.0391,-1.5878,-1.5802,1.7634,0,0,0
0.0989,0.0347,1.0532,-2.5038,-0.3893,2.6641,0,0,0
0.095,0.033,1.0493,-2.9237,0.9313,3.1527,0,0,0
0.1013,0.0332,1.0442,-2.2519,1.0229,3.5954,0,0,0
0.0979,0.0361,1.0417,-1.9237,1.3588,3.5115,0,0,0
0.0881,0.0449,1.0374,-0.542,1.7023,3.4962,0,0,0
0.0989,0.0352,1.0273,0.7786,1.3817,2.8855,0,0,0
0.094,0.0454,1.0146,1.0382,0.7863,2.542,0,0,0
0.0984,0.0464,1.0183,0.8092,0.8321,2.542,0,0,0
0.0959,0.0496,1.0334,0.5802,0.9618,3.0076,0,0,0
0.1001,0.0493,1.0261,0.8626,2.0534,3.4733,0,0,0
0.0967,0.0557,1.0195,1.3969,2.1679,4.1527,0,0,0
0.0991,0.0601,1.0083,1.0611,1.1603,3.5344,0,0,0
0.0967,0.0676,0.9954,0.3282,0.3893,1.8626,0,0,0
0.0935,0.064,1.001,-0.6794,-0.7176,1.0458,0,0,0
0.0933,0.0535,1.0159,-0.5725,-1.3893,0.5191,0,0,0
0.0923,0.0496,1.0159,-0.6183,-1.855,0.9237,0,0,0
0.0979,0.0564,1.01,-1.0992,-2.1145,1.3893,0,0,0
0.0972,0.0564,1.0193,-2.3053,-2.0763,1.145,0,0,0
0.1079,0.0542,1.0264,-3.229,-1.2214,1.1679,0,0,0
0.1072,0.0513,1.042,-3.8702,-0.2748,0.6336,0,0,0
0.1013,0.0498,1.0486,-3.9466,0.9542,-0.3282,0,0,0
0.0959,0.0481,1.0381,-3.313,1.0916,-1.3206,0,0,0
0.0898,0.0393,1.0271,-2.4809,0.9542,-1.4656,0,0,0
0.0903,0.0305,1.0244,-1.6565,-0.6107,-0.8626,0,0,0
0.0933,0.0415,1.0334,-1.4962,-1.0382,-0.5649,0,0,0
0.084,0.0435,1.0383,-1.2443,-0.5115,-0.9008,0,0,0
0.092,0.0356,1.0359,-1.7786,0.0763,-0.5954,0,0,0
0.0852,0.0354,1.0325,-2.2214,0.5725,0.4809,0,0,0
0.0852,0.0398,1.0312,-3.0305,1.0,1.7939,0,0,0
0.0896,0.0447,1.031,-3.6489,1.4427,2.3664,0,0,0
0.0898,0.054,1.0183,-4.0763,1.771,2.2901,0,0,0
0.0879,0.0596,1.0173,-3.5267,1.1145,0.9695,0,0,0
0.092,0.0559,1.0154,-2.5954,0.0153,0.0229,0,0,0
0.0991,0.0542,1.0239,-1.7405,-0.6565,-0.6336,0,0,0
0.0967,0.0583,1.022,-0.855,-0.8015,-1.5573,0,0,0
0.0952,0.063,1.022,-0.3359,-0.5496,-1.9618,0,0,0
0.0972,0.0554,1.0125,-0.4885,-0.3053,-2.2366,0,0,0
0.0933,0.0508,1.0215,-1.5802,-0.313,-2.4656,0,0,0
0.092,0.0413,1.0159,-2.4351,0.3511,-2.3511,0,0,0
0.0842,0.0415,1.0068,-2.9466,0.2977,-1.6794,0,0,0
0.0862,0.0361,1.0173,-2.8092,-0.0763,-1.2137,0,0,0
0.0903,0.0396,1.0256,-1.7634,-0.374,-0.5038,0,0,0
0.093,0.0442,1.0208,-0.916,0.0153,-0.0229,0,0,0
0.0977,0.0569,1.01,-1.0305,-0.855,-0.6412,0,0,0
0.0996,0.0571,1.0083,-1.6183,-0.9847,-1.7023,0,0,0
0.1011,0.0466,1.0117,-2.0763,-1.7405,-2.4962,0,0,0
0.0933,0.0457,1.0356,-2.0916,-1.6031,-2.916,0,0,0
0.0876,0.0415,1.0317,-0.771,-0.4733,-2.2366,0,0,0
0.0923,0.0378,1.0244,-0.145,-0.9084,-1.9924,0,0,0
0.0881,0.0393,1.0195,0.0,-1.3817,-1.3664,0,0,0
0.0864,0.052,1.019,-0.6107,-1.5954,-1.7328,0,0,0
0.0835,0.0444,1.0266,-1.3664,-1.1679,-1.9924,0,0,0
0.0928,0.0356,1.0276,-1.8321,-0.084,-1.3435,0,0,0
0.0935,0.042,1.0281,-1.916,0.9313,-0.5802,0,0,0
0.0918,0.0405,1.0054,-1.4504,0.771,-0.916,0,0,0
0.0896,0.0496,0.9939,-1.313,-1.2061,-0.8244,0,0,0
0.0901,0.0408,1.002,-1.374,-2.9313,-1.771,0,0,0
0.0874,0.0393,1.0239,-1.458,-4.2595,-1.5038,0,0,0
0.093,0.0356,1.022,-1.2061,-4.1145,-1.4962,0,0,0
0.0947,0.0364,1.0317,-1.8931,-3.7176,-0.9695,0,0,0
0.0911,0.0352,1.0366,-2.2214,-2.6947,-0.5344,0,0,0
0.0952,0.0361,1.0413,-2.855,-1.687,0.1603,0,0,0
0.0962,0.0381,1.0432,-3.0687,-0.4198,0.8015,0,0,0
0.0991,0.0352,1.0562,-2.2519,-0.084,1.2977,0,0,0
0.1023,0.0491,1.0432,-0.5649,0.5954,1.229,0,0,0
0.1077,0.0547,1.0378,0.9618,-0.5573,0.8473,0,0,0
0.1135,0.0645,1.0393,1.9389,-1.0,-0.2519,0,0,0
0.1079,0.0693,1.0408,2.145,-1.145,-2.374,0,0,0
0.0996,0.0676,1.03,2.0458,-1.1069,-4.0,0,0,0
0.0994,0.0586,1.0203,2.084,-1.0687,-4.1679,0,0,0
0.0967,0.0432,1.0225,0.1527,-1.2672,-3.145,0,0,0
0.0957,0.0415,1.0403,-1.3588,-0.1603,-2.0229,0,0,0
0.1003,0.0415,1.0405,-2.8244,1.3664,-0.8473,0,0,0
0.0979,0.0459,1.0354,-3.8244,3.1145,-0.2519,0,0,0
0.0938,0.0454,1.0251,-3.6718,3.7786,-0.6489,0,0,0
0.0903,0.0476,1.0149,-3.2443,2.8855,-1.2519,0,0,0
0.093,0.04,1.0066,-2.5267,1.2977,-1.6794,0,0,0
0.0886,0.0427,0.999,-1.8931,-0.1832,-2.3206,0,0,0
0.0803,0.033,1.0071,-1.4275,-1.229,-2.8168,0,0,0
0.082,0.0171,1.0161,-1.0153,-2.0611,-1.7939,0,0,0
0.0784,0.0242,1.0139,-0.8168,-2.542,-0.3588,0,0,0
0.0845,0.0212,1.02,-0.7176,-2.5267,1.3359,0,0,0
0.0979,0.0344,1.0288,-1.8244,-1.7023,3.0916,0,0,0
0.1023,0.0486,1.0332,-1.9924,-0.3664,3.0382,0,0,0
0.0984,0.0615,1.0188,-2.0534,-0.1679,1.8626,0,0,0
0.1028,0.0588,1.0076,-2.7557,-1.4427,0.0,0,0,0
0.0986,0.0525,1.0227,-3.0,-1.5191,-0.9084,0,0,0
0.0908,0.0356,1.0383,-2.542,-1.0076,-0.4351,0,0,0
0.0986,0.0291,1.0386,-1.8855,-0.1679,1.1603,0,0,0
0.0962,0.0442,1.0364,-1.2672,0.7481,2.4733,0,0,0
0.1035,0.0579,1.0342,-1.5573,1.3969,2.4656,0,0,0
0.1057,0.073,1.0129,-2.0229,0.7786,1.1527,0,0,0
0.0947,0.0708,1.0122,-2.1221,0.0992,-1.0382,0,0,0
0.0945,0.063,1.0061,-2.3053,-1.1298,-2.4504,0,0,0
0.0869,0.0488,1.0173,-2.2137,-2.4122,-2.855,0,0,0
0.0845,0.0361,1.0366,-2.1832,-2.1069,-1.6183,0,0,0
0.0857,0.041,1.0537,-2.3588,-0.3969,-0.2137,0,0,0
0.0935,0.0447,1.0474,-2.5573,1.2366,0.7939,0,0,0
0.0979,0.0588,1.0303,-2.8626,2.2137,1.3893,0,0,0
0.0989,0.0662,1.0327,-3.2137,2.1679,0.6794,0,0,0
0.1011,0.0676,1.0276,-3.5191,2.2672,-1.0763,0,0,0
0.0942,0.0583,1.04,-3.5115,2.3969,-2.7099,0,0,0
0.0942,0.0464,1.0496,-3.0916,2.9695,-3.2061,0,0,0
0.0957,0.0391,1.0725,-2.5878,5.229,-2.542,0,0,0
0.1023,0.0374,1.0823,-3.6031,8.374,-1.7099,0,0,0
0.0952,0.0491,1.0837,-4.6947,12.7405,-0.1603,0,0,0
0.0994,0.052,1.0835,-6.374,16.8015,0.0153,0,0,0
0.0928,0.0486,1.0754,-7.9466,20.1756,-0.9313,0,0,0
0.0872,0.0396,1.0933,-7.2595,23.626,-1.687,0,0,0
0.0789,0.0447,1.0686,-6.6947,25.9313,-2.1756,0,0,0
0.0833,0.0317,1.062,-6.4885,27.9542,-1.1374,0,0,0
0.0835,0.0359,1.0798,-7.3817,30.4656,-0.0305,0,0,0
0.0752,0.0415,1.0959,-6.9542,35.9313,0.8321,0,0,0
0.0771,0.0432,1.0986,-4.8244,41.5802,-0.4885,0,0,0
0.0547,0.0454,1.0737,-9.2672,44.2443,-2.084,0,0,0
0.0593,0.0278,1.0776,-7.5038,46.2901,-1.8626,0,0,0
0.0374,0.0127,1.041,-1.8244,45.9008,-0.084,0,0,0
0.0332,0.0386,1.002,-4.6183,44.0611,-0.6031,0,0,0
0.0295,0.0469,1.012,-3.8092,41.9466,-1.5878,0,0,0
0.0203,0.0415,1.0364,-3.374,41.8397,-3.313,0,0,0
0.0063,0.0469,1.0117,-3.3664,40.8931,-5.626,0,0,0
-0.0161,0.043,0.998,-1.1756,38.8015,-6.7634,0,0,0
-0.0286,0.0295,0.9822,0.4046,35.5115,-6.7099,0,0,0
-0.033,0.022,0.9929,1.1679,31.9542,-5.4198,0,0,0
-0.0322,0.022,1.0154,1.1145,30.9237,-3.3206,0,0,0
-0.0386,0.0293,1.0413,-0.3435,31.9618,-1.9542,0,0,0
-0.0454,0.0322,1.0671,-1.5649,34.6489,-0.8397,0,0,0
-0.0505,0.0168,1.0925,-0.4275,37.0229,1.3588,0,0,0
-0.0557,0.0164,1.0332,-5.3969,39.2061,1.8626,0,0,0
-0.0669,0.0339,1.022,-3.3282,37.6183,2.2443,0,0,0
-0.075,0.0403,1.0137,-1.0534,35.3817,1.4885,0,0,0
-0.0823,0.0466,0.9812,1.4351,31.5038,-0.9466,0,0,0
-0.0891,0.0547,0.9807,1.5344,27.2214,-3.4809,0,0,0
-0.0925,0.0488,0.9795,1.4962,22.8626,-6.145,0,0,0
-0.0952,0.0359,0.999,2.4962,20.1985,-6.8015,0,0,0
-0.1079,0.0332,1.0212,4.4809,19.3893,-6.7557,0,0,0
-0.1072,0.0374,1.0178,5.6412,19.7863,-6.4122,0,0,0
-0.1121,0.0322,1.0178,3.8855,20.8015,-6.3588,0,0,0
-0.1133,0.0422,0.9861,2.3817,20.3435,-6.3511,0,0,0
-0.1323,0.0496,0.9568,2.3588,17.6794,-6.8397,0,0,0
-0.1375,0.0422,0.9463,2.3664,13.5878,-7.8855,0,0,0
-0.1375,0.0291,0.9756,2.1603,11.374,-7.1603,0,0,0
-0.1411,0.0361,0.9734,1.7328,9.5038,-6.1069,0,0,0
-0.1509,0.0435,0.9456,1.5496,6.4809,-5.4122,0,0,0
-0.1418,0.0447,0.9431,1.0534,3.0534,-5.7252,0,0,0
-0.136,0.041,0.9854,0.1756,0.3053,-5.4046,0,0,0
-0.1362,0.0425,1.0115,-0.9237,1.2366,-5.5649,0,0,0
-0.1379,0.0396,1.0024,-1.7099,1.9924,-5.5038,0,0,0
-0.1265,0.0313,1.0078,-2.1298,1.9313,-4.855,0,0,0
-0.1375,0.0359,1.0125,-2.4122,2.4733,-4.626,0,0,0
-0.1392,0.0286,1.0061,-2.3893,2.4656,-4.5267,0,0,0
-0.1465,0.0181,0.9985,-2.1221,0.9924,-4.2595,0,0,0
-0.1531,0.0154,1.0024,-1.9771,-0.7786,-3.771,0,0,0
-0.1555,0.019,1.0183,-1.7099,-2.0229,-2.7252,0,0,0
-0.1428,0.0088,1.0388,-1.7252,-1.8397,-1.0305,0,0,0
-0.1367,0.0168,1.0422,-1.458,-0.8321,1.0229,0,0,0
-0.1367,0.0325,1.0315,-1.1985,0.0763,1.4122,0,0,0
-0.125,0.0371,1.0383,-1.0153,0.6107,1.8931,0,0,0
-0.1243,0.0508,1.0325,-0.3664,1.6031,1.8473,0,0,0
-0.1294,0.0505,1.0046,-0.2672,1.0916,0.7328,0,0,0
-0.1328,0.0537,1.0046,0.3893,-0.687,-0.5878,0,0,0
-0.1294,0.0576,1.0076,0.687,-1.9695,-1.229,0,0,0
-0.125,0.051,1.0171,0.3511,-1.8626,-1.4427,0,0,0
-0.1204,0.0432,1.0308,0.2672,-1.0992,-0.6794,0,0,0
-0.1218,0.0481,1.0227,-0.1908,-0.3435,-0.6565,0,0,0
-0.1299,0.0613,1.0071,-1.0153,0.1679,-0.8168,0,0,0
-0.1311,0.0627,0.9993,-1.3053,0.0611,-1.8397,0,0,0
-0.1311,0.054,1.0007,-2.2366,-0.6031,-2.4733,0,0,0
-0.1272,0.0525,1.0156,-3.3664,-1.0458,-2.229,0,0,0
-0.1296,0.0442,1.019,-3.4885,-0.6183,-1.8779,0,0,0
-0.126,0.0337,1.0339,-1.9084,-0.3053,-1.7176,0,0,0
-0.1365,0.0476,1.0288,-0.3282,-0.0305,-1.6565,0,0,0
-0.1365,0.0491,1.0134,1.0763,-1.1221,-2.313,0,0,0
-0.1345,0.0488,1.0005,1.3359,-2.5115,-2.771,0,0,0
-0.1311,0.052,1.0137,0.5344,-3.374,-2.8168,0,0,0
-0.1384,0.0452,1.0139,-0.8015,-3.3282,-2.5802,0,0,0
-0.1328,0.04,1.0334,-1.5115,-2.5954,-1.8321,0,0,0
-0.1304,0.0371,1.0249,-1.3282,-2.0382,-0.8092,0,0,0
-0.1353,0.0415,1.0181,-1.4275,-1.8397,-0.0534,0,0,0
-0.137,0.0503,0.998,-0.374,-3.0076,-0.1908,0,0,0
-0.1345,0.0542,0.9846,0.8321,-4.9466,-1.313,0,0,0
-0.1311,0.0554,0.9741,2.0076,-8.8244,-2.3282,0,0,0
-0.1348,0.0571,0.9736,2.5802,-12.9237,-3.687,0,0,0
-0.137,0.0481,0.968,2.0916,-17.1527,-4.5038,0,0,0
-0.1353,0.0549,0.989,1.0305,-19.4962,-5.2748,0,0,0
-0.1292,0.0381,0.9714,0.5191,-21.6107,-5.4733,0,0,0
-0.125,0.0359,0.9241,-1.2977,-26.2443,-4.5267,0,0,0
-0.1326,0.0332,0.9138,-3.0763,-31.8092,-2.6718,0,0,0
-0.1267,0.0308,0.9338,-4.0687,-37.1679,-1.5954,0,0,0
-0.1128,0.0249,0.9644,-5.7481,-40.0992,-0.6641,0,0,0
-0.0967,0.033,1.0115,-7.8397,-40.1603,-0.0916,0,0,0
-0.0862,0.0215,1.0557,-9.2366,-36.0611,1.3588,0,0,0
-0.0767,0.0098,1.0498,-8.5802,-33.145,3.5802,0,0,0
-0.0674,0.0103,1.0388,-7.6412,-31.9237,6.0229,0,0,0
-0.0581,0.0234,1.0591,-6.0382,-30.6641,7.5038,0,0,0
-0.0513,0.0269,1.0554,-5.2366,-29.1985,7.7786,0,0,0
-0.0437,0.0349,1.0488,-4.4962,-28.5344,7.6489,0,0,0
-0.0415,0.042,1.0405,-2.0687,-28.7023,7.0153,0,0,0
-0.0354,0.0442,1.0537,0.5649,-28.8931,5.1374,0,0,0
-0.0215,0.0408,1.0742,2.3664,-27.8168,4.3817,0,0,0
-0.0269,0.0503,1.0681,3.1603,-25.7252,3.7328,0,0,0
-0.0151,0.054,1.0518,2.8321,-23.8244,3.6794,0,0,0
-0.0046,0.0615,1.0176,1.1374,-23.7939,4.0763,0,0,0
0.0037,0.0754,1.0322,-1.1756,-24.3664,3.7863,0,0,0
0.0063,0.0779,1.0374,-2.916,-23.1374,1.8855,0,0,0
0.0044,0.082,1.0227,-3.9237,-23.0687,-0.2977,0,0,0
0.0044,0.0701,1.0112,-3.4275,-24.145,-2.1069,0,0,0
0.0071,0.0635,1.0237,-2.4351,-25.0611,-3.6412,0,0,0
0.0103,0.0581,1.0276,-1.5496,-25.0,-4.1527,0,0,0
0.0103,0.0532,1.0195,-1.4733,-26.0229,-4.2214,0,0,0
0.02,0.0396,1.0125,0.2595,-26.7328,-4.4809,0,0,0
0.0349,0.0322,1.0557,1.4656,-26.8473,-4.0916,0,0,0
0.0342,0.0388,1.0708,2.0153,-24.8855,-3.4046,0,0,0
0.0322,0.0417,1.064,3.3359,-22.542,-2.771,0,0,0
0.0454,0.0481,1.0139,5.8931,-23.687,-1.9084,0,0,0
0.0471,0.0635,0.98,8.1069,-28.5725,-2.8397,0,0,0
0.0479,0.0742,0.9558,10.0,-34.8473,-4.9008,0,0,0
0.0444,0.0784,0.9631,9.8779,-39.8473,-7.9466,0,0,0
0.0439,0.074,0.9775,8.7328,-41.5573,-9.4809,0,0,0
0.0505,0.0559,0.958,5.6336,-42.4733,-9.2061,0,0,0
0.0525,0.0613,0.9189,0.8702,-45.687,-7.5802,0,0,0
0.0496,0.0564,0.9021,-5.1527,-50.5496,-5.3435,0,0,0
0.0649,0.0605,0.894,-8.7939,-55.4122,-4.5115,0,0,0
0.0864,0.0447,0.9414,-11.626,-57.5038,-3.4885,0,0,0
0.1047,0.0315,0.9973,-13.5954,-56.2214,-2.6107,0,0,0
0.1345,0.01,1.0784,-14.7023,-51.8244,-0.8321,0,0,0
0.1243,0.0271,1.1426,-15.1679,-44.0611,0.9389,0,0,0
0.1514,-0.0054,1.2092,-13.2137,-32.8015,4.0992,0,0,0
0.1738,0.002,1.2268,-13.1527,-19.1145,8.4275,0,0,0
0.1992,0.0161,1.1941,-11.2672,-6.6565,11.1145,0,0,0
0.1941,0.0544,1.1482,-10.4504,1.4198,9.7405,0,0,0
0.1841,0.071,1.1389,-7.9389,6.3588,5.458,0,0,0
0.1829,0.0466,1.1003,-3.3511,8.3053,1.3435,0,0,0
0.1792,0.0315,1.0715,0.5038,7.4122,0.1603,0,0,0
0.1812,0.0322,1.0593,3.5191,4.6565,1.3282,0,0,0
0.1714,0.0464,1.0598,5.6489,2.9237,1.2137,0,0,0
0.1594,0.0583,1.0676,6.6107,3.8244,-0.5725,0,0,0
0.1621,0.054,1.0625,6.8473,5.7405,-1.4504,0,0,0
0.1582,0.0547,1.0547,6.3893,7.1069,-1.542,0,0,0
0.158,0.0566,1.0583,5.458,9.0305,-1.2748,0,0,0
0.1545,0.0605,1.063,4.5496,11.458,-0.687,0,0,0
0.1562,0.064,1.0532,3.4885,14.1908,-0.7405,0,0,0
0.1501,0.0652,1.0515,2.313,16.5267,-0.9084,0,0,0
0.1489,0.0696,1.0457,2.0382,18.3893,-0.9618,0,0,0
0.1462,0.0732,1.0327,0.916,19.4427,-1.1908,0,0,0
0.1462,0.0725,1.0356,-0.7634,20.0687,-2.1985,0,0,0
0.1357,0.0833,1.0632,-2.0458,22.5954,-3.5802,0,0,0
0.1248,0.0735,1.0801,-3.1069,26.3435,-5.3588,0,0,0
0.1213,0.0625,1.0637,-4.5802,30.1679,-6.0458,0,0,0
0.1091,0.0496,1.0498,-5.5878,32.4427,-5.4198,0,0,0
0.1133,0.0393,1.0295,-5.5038,33.8702,-3.7481,0,0,0
0.0972,0.0415,1.0173,-5.9618,32.2366,-3.2748,0,0,0
0.0879,0.0364,1.0151,-5.1298,29.6336,-2.4351,0,0,0
0.0793,0.0417,1.0254,-4.4427,27.7252,-2.5267,0,0,0
0.071,0.0447,1.041,-3.5649,27.2443,-2.9008,0,0,0
0.0654,0.0435,1.0195,-2.5649,27.8092,-2.6641,0,0,0
0.0706,0.0386,1.0042,-2.5573,25.9389,-2.2061,0,0,0
0.0615,0.0518,1.0093,-2.6947,23.9771,-2.084,0,0,0
0.0571,0.0479,1.0103,-1.8015,22.2443,-2.5115,0,0,0
0.0518,0.054,1.0066,-0.0687,20.2519,-3.6489,0,0,0
0.0403,0.052,0.9956,1.8092,17.2901,-5.4122,0,0,0
0.0388,0.0488,0.9946,2.9847,14.9847,-6.9008,0,0,0
0.0305,0.0442,0.9941,3.8855,13.0458,-7.6641,0,0,0
0.0222,0.0349,0.9949,3.8397,11.4885,-7.2748,0,0,0
0.0183,0.0337,0.9802,3.5344,9.687,-5.9084,0,0,0
0.0178,0.03,0.9771,2.9618,7.3969,-5.0763,0,0,0
0.0171,0.0286,1.0002,1.1221,6.3817,-3.3588,0,0,0
0.0166,0.0271,1.0088,-0.6641,6.4733,-1.9771,0,0,0
0.019,0.0337,1.0159,-2.1374,6.8168,-0.2595,0,0,0
0.0142,0.0342,1.0186,-3.4656,7.2672,0.5496,0,0,0
0.0237,0.0427,1.0059,-4.0076,7.3282,1.8321,0,0,0
0.0186,0.0591,1.0005,-3.9847,6.7328,1.084,0,0,0
0.0134,0.0566,0.988,-3.3511,5.0458,-0.4046,0,0,0
0.0173,0.0393,0.9998,-3.0611,3.7481,-1.9008,0,0,0
0.0195,0.0334,1.0015,-2.7099,1.7481,-2.0229,0,0,0
0.0115,0.0298,1.0183,-2.0534,0.6794,-1.0305,0,0,0
0.01,0.0256,1.0364,-1.1221,1.3435,-0.0382,0,0,0
0.0063,0.0305,1.0305,0.6031,1.9313,0.8626,0,0,0
0.0149,0.0396,1.0222,1.084,2.2672,1.6718,0,0,0
0.0183,0.0483,1.0222,0.4809,2.3664,2.145,0,0,0
0.0171,0.0481,1.0083,-0.2901,2.3588,2.7481,0,0,0
0.0261,0.0593,0.9971,-1.8855,1.2443,3.0076,0,0,0
0.0215,0.0583,0.9944,-2.8397,-0.1908,3.0,0,0,0
0.0139,0.0613,1.0095,-3.6489,-1.1603,1.7405,0,0,0
0.0146,0.0625,1.0232,-3.7786,-1.4046,1.5267,0,0,0
0.0166,0.051,1.032,-3.2672,-1.2748,1.5191,0,0,0
0.0205,0.0488,1.0291,-2.9389,-1.8092,1.6412,0,0,0
0.0195,0.0574,1.0337,-2.374,-1.7099,1.626,0,0,0
0.0193,0.0627,1.0425,-2.0992,-1.2977,1.2901,0,0,0
0.0234,0.0535,1.0322,-2.3511,-0.7328,0.2901,0,0,0
0.0247,0.051,1.0396,-4.2137,-0.1221,0.1908,0,0,0
0.0149,0.0464,1.0483,-5.4122,1.4046,0.5649,0,0,0
0.0188,0.0417,1.0476,-6.3282,2.9389,0.9008,0,0,0
0.0129,0.0371,1.0405,-6.3664,3.3588,1.7328,0,0,0
0.0129,0.0432,1.0334,-4.4733,2.2595,1.7023,0,0,0
0.0071,0.0469,1.0222,-2.1832,0.6565,1.2672,0,0,0
0.0098,0.051,1.0359,-0.6641,-1.2137,0.1679,0,0,0
0.0127,0.0464,1.0422,0.3817,-1.1756,-0.5496,0,0,0
0.0088,0.0452,1.0283,0.7939,-0.7252,-0.1527,0,0,0
0.009,0.0469,1.021,0.6565,-1.0,0.6641,0,0,0
0.0178,0.0432,1.0266,-0.5191,-0.9847,1.3282,0,0,0
0.0151,0.0542,1.0361,-1.6489,-0.6489,1.8473,0,0,0
0.0117,0.0588,1.0479,-2.3511,0.7786,1.5573,0,0,0
0.0176,0.0557,1.031,-2.7023,1.7786,1.1908,0,0,0
0.0173,0.0625,1.0232,-2.855,1.5344,0.687,0,0,0
0.0134,0.063,1.0117,-2.3359,0.7405,-0.0076,0,0,0
0.0083,0.0608,1.0151,-1.3664,-0.1298,-0.8779,0,0,0
0.009,0.0549,1.0144,-0.7634,-1.0763,-1.4962,0,0,0
0.0159,0.0469,1.0107,-0.9542,-2.2748,-1.0687,0,0,0
0.0117,0.0452,1.0132,-0.6718,-3.2824,-0.626,0,0,0
0.0068,0.0535,1.0254,-1.5344,-3.7634,-0.4656,0,0,0
0.0139,0.0432,1.022,-2.0305,-3.2061,-0.2901,0,0,0
0.0137,0.0413,1.0334,-2.6794,-2.313,0.2901,0,0,0
0.0149,0.0449,1.0349,-3.0916,-1.5802,1.0229,0,0,0
0.0151,0.0471,1.0369,-2.5115,-0.8168,1.3359,0,0,0
0.0239,0.0474,1.0269,-2.313,-0.6565,1.7786,0,0,0
0.0242,0.0522,1.0298,-2.313,-1.0611,1.6336,0,0,0
0.0205,0.0479,1.0259,-2.3359,-1.2595,1.0382,0,0,0
0.021,0.0405,1.0239,-2.7786,-2.0305,1.0458,0,0,0
0.0151,0.0259,1.0205,-3.0992,-2.8321,2.5267,0,0,0
0.0046,0.0044,1.0088,-3.9924,-3.9313,5.4122,0,0,0
-0.0063,0.0007,1.0034,-5.5802,-4.9542,8.458,0,0,0
-0.0076,-0.0117,1.0115,-7.8931,-5.6641,13.1832,0,0,0
-0.0137,-0.0354,1.0171,-11.8397,-5.5267,19.0382,0,0,0
-0.0369,-0.0571,1.0229,-16.0458,-4.4504,26.916,0,0,0
-0.0286,-0.1035,1.0525,-23.9924,-3.1985,39.9695,0,0,0
-0.0308,-0.0571,1.0669,-28.313,0.687,53.1298,0,0,0
0.0049,-0.0583,1.0417,-33.4962,2.1908,62.1985,0,0,0
0.0083,-0.0374,1.0464,-35.3206,3.4198,65.3588,0,0,0
-0.0227,-0.0435,1.0339,-37.374,3.7176,65.1298,0,0,0
-0.0286,-0.061,1.0413,-36.3511,4.2901,65.8473,0,0,0
-0.0076,-0.0691,1.0281,-36.7557,4.2748,68.7099,0,0,0
0.0029,-0.05,1.0603,-36.4198,6.4198,71.5954,0,0,0
0.0315,-0.0222,1.0762,-39.4198,10.3282,72.542,0,0,0
0.0588,-0.0076,1.0752,-39.4122,14.3435,70.7405,0,0,0
0.0549,0.0039,1.0686,-35.8321,17.2519,64.9542,0,0,0
0.0408,0.0144,1.0227,-27.145,14.5496,57.2137,0,0,0
0.0215,0.0151,0.9841,-16.1527,6.8321,49.145,0,0,0
0.0176,-0.0071,0.9626,-7.2137,-2.9618,41.1603,0,0,0
0.0276,-0.0271,0.99,0.1221,-11.0458,36.9542,0,0,0
0.0356,-0.0308,1.0198,4.9847,-15.8168,33.9542,0,0,0
0.0381,-0.0317,1.0603,7.9237,-16.6031,33.1832,0,0,0
0.0405,-0.0061,1.0713,9.8931,-14.542,31.3969,0,0,0
0.0569,0.0063,1.061,9.9618,-12.1908,29.687,0,0,0
0.064,0.0203,1.0583,8.3969,-9.6412,26.6794,0,0,0
0.0649,0.0369,1.0369,5.9771,-6.9008,22.7023,0,0,0
0.0627,0.0432,1.019,3.1908,-5.687,18.0229,0,0,0
0.0662,0.0383,1.01,0.4122,-4.8092,14.1832,0,0,0
0.0645,0.0413,1.0181,-2.145,-4.2443,10.7405,0,0,0
0.0647,0.0442,1.0227,-4.1221,-3.084,7.7863,0,0,0
0.0667,0.0403,1.0315,-4.3969,-1.5344,4.7481,0,0,0
0.0547,0.0442,1.0359,-2.6107,-0.1985,0.6107,0,0,0
0.0559,0.0308,1.041,0.6565,0.9618,-2.9084,0,0,0
0.0566,0.0093,1.031,2.6412,1.0,-5.0687,0,0,0
0.0513,0.0098,1.01,4.0382,1.3053,-6.4809,0,0,0
0.04,0.0059,0.9939,3.6412,0.1756,-7.145,0,0,0
0.0303,-0.0015,0.9854,1.7328,-1.5878,-7.7023,0,0,0
0.0176,-0.0164,0.9973,-0.2519,-2.8931,-7.9084,0,0,0
0.0168,-0.0359,1.0239,-1.626,-3.9771,-6.4275,0,0,0
0.0056,-0.0313,1.0391,-1.4504,-3.0458,-4.3511,0,0,0
0.0222,-0.0249,1.0403,-1.6718,-2.0153,-2.3435,0,0,0
0.0339,-0.0139,1.0474,-2.3053,-1.1069,-1.9008,0,0,0
0.0415,-0.0063,1.0537,-2.7786,0.3206,-3.2672,0,0,0
0.0388,-0.002,1.064,-3.0611,1.7405,-5.5573,0,0,0
0.0386,-0.0042,1.0481,-2.0992,2.0076,-7.1756,0,0,0
0.0405,0.0,1.0381,-0.6489,1.6641,-8.4809,0,0,0
0.0374,0.0105,1.0349,0.6107,1.2137,-9.8397,0,0,0
0.0337,0.0117,1.0444,1.6107,1.542,-11.771,0,0,0
0.0261,0.002,1.031,2.8931,1.916,-14.374,0,0,0
0.0305,-0.0051,1.0327,4.1145,1.6412,-15.9618,0,0,0
0.0417,-0.0068,1.0557,5.0305,1.5878,-16.6718,0,0,0
0.0525,0.0149,1.0569,6.2824,2.7176,-17.5344,0,0,0
0.054,0.0281,1.0432,6.7939,3.5878,-20.0687,0,0,0
0.0605,0.0457,1.0376,6.5573,4.4046,-24.0916,0,0,0
0.0527,0.0515,1.0349,7.0763,4.9313,-29.2595,0,0,0
0.0515,0.0593,1.0164,7.6718,3.9618,-34.4962,0,0,0
0.0586,0.042,1.0242,8.2901,2.3206,-38.687,0,0,0
0.0601,0.0374,1.0601,8.687,3.7099,-42.1527,0,0,0
0.0581,0.0281,1.0828,8.1145,6.5878,-44.9313,0,0,0
0.0479,0.0154,1.0945,9.2901,9.8321,-46.7557,0,0,0
0.0444,0.0186,1.0764,10.229,10.9313,-47.5878,0,0,0
0.0415,0.0146,1.0627,11.2214,11.0916,-48.2214,0,0,0
0.0359,0.0325,1.054,12.4809,11.8931,-49.6565,0,0,0
0.0435,0.0403,1.0369,12.6031,11.6183,-50.9466,0,0,0
0.0449,0.0518,1.0425,11.4504,11.9313,-53.3053,0,0,0
0.0408,0.0415,1.0415,9.1603,13.2443,-55.4504,0,0,0
0.0242,0.0178,1.0435,7.0992,14.7786,-56.7557,0,0,0
-0.0032,0.0083,1.0266,5.0763,16.4046,-56.5802,0,0,0
-0.0271,-0.0208,1.0264,4.0992,15.9313,-53.8321,0,0,0
-0.0371,-0.0313,1.0134,2.9237,14.4427,-49.9542,0,0,0
-0.0408,-0.032,1.0032,1.9924,13.5878,-45.6412,0,0,0
-0.0469,-0.0256,0.9946,0.229,13.0687,-42.229,0,0,0
-0.0391,-0.0242,0.9927,-2.3969,12.9084,-38.5115,0,0,0
-0.0427,-0.0203,0.9941,-5.0611,12.9313,-35.0992,0,0,0
-0.0476,-0.0134,0.9932,-6.3359,12.626,-33.3664,0,0,0
-0.0542,-0.0181,1.0022,-5.6718,11.0305,-32.7099,0,0,0
-0.0679,-0.0308,1.0034,-3.8015,9.2443,-32.2061,0,0,0
-0.0759,-0.0464,0.9988,-2.5878,6.687,-30.5878,0,0,0
-0.0774,-0.0569,1.0015,-1.7176,4.5191,-27.0305,0,0,0
-0.082,-0.0562,1.0073,-2.0992,3.687,-22.3282,0,0,0
-0.0635,-0.0586,0.9968,-3.4885,3.7252,-17.4427,0,0,0
-0.0586,-0.0464,1.012,-5.1221,3.313,-13.4198,0,0,0
-0.0618,-0.0337,1.0081,-5.4198,3.0763,-11.0,0,0,0
-0.0615,-0.03,1.0083,-4.5038,1.374,-10.3588,0,0,0
-0.0615,-0.0317,1.0046,-3.542,-0.6489,-10.1221,0,0,0
-0.0632,-0.0413,1.0271,-1.3817,-2.4885,-9.5115,0,0,0
-0.0659,-0.0503,1.0305,0.2061,-3.1985,-7.9389,0,0,0
-0.0615,-0.0417,1.0325,1.0229,-2.855,-5.4427,0,0,0
-0.0571,-0.0378,1.0452,0.4733,-1.5878,-1.8015,0,0,0
-0.0471,-0.0264,1.0303,-0.5725,-0.6031,0.7252,0,0,0
-0.0439,-0.0132,1.0132,-2.3588,-1.2443,1.9084,0,0,0
-0.041,-0.0063,1.0278,-1.916,-2.5725,1.855,0,0,0
-0.0439,-0.0046,1.0457,-0.229,-3.4122,1.084,0,0,0
-0.0459,-0.009,1.0291,2.2366,-4.9237,0.4962,0,0,0
-0.0454,-0.0078,1.0261,3.771,-6.9771,0.771,0,0,0
-0.042,-0.0032,1.041,4.6947,-7.0916,1.5038,0,0,0
-0.0332,0.0015,1.0637,3.6107,-5.5573,3.1298,0,0,0
-0.0288,0.0071,1.0366,1.7863,-3.5725,5.0076,0,0,0
-0.0244,0.0171,1.0229,-0.4275,-2.542,6.2977,0,0,0
-0.0244,0.0164,1.0269,-2.1298,-2.6336,6.5802,0,0,0
-0.0251,0.0212,1.0293,-2.2366,-2.8779,6.084,0,0,0
-0.0283,0.0242,1.0063,-1.5878,-4.5725,5.5038,0,0,0
-0.0154,0.0288,1.0051,-1.229,-6.6794,4.7863,0,0,0
-0.0171,0.0308,1.0293,-0.2748,-6.8092,4.2366,0,0,0
-0.0073,0.0254,1.0466,0.1221,-5.8397,3.5878,0,0,0
-0.0029,0.0215,1.0457,-1.3282,-4.0916,3.6336,0,0,0
-0.0107,0.0266,1.041,-2.6412,-1.7634,3.9618,0,0,0
-0.0122,0.0247,1.0383,-3.6183,-0.1832,3.1908,0,0,0
-0.0093,0.0205,1.0317,-3.8702,0.3664,2.8473,0,0,0
-0.0181,0.0283,1.0134,-3.4962,-1.1069,1.5038,0,0,0
-0.0237,0.0273,1.0203,-1.7252,-3.1298,-0.1145,0,0,0
-0.0381,0.0205,1.0132,0.1374,-4.9237,-1.3282,0,0,0
-0.0376,0.0103,1.0232,0.8702,-5.9771,-1.8931,0,0,0
-0.0356,0.0051,1.031,-0.0687,-5.542,-0.4885,0,0,0
-0.0347,-0.0002,1.0557,-2.0458,-3.7405,0.9008,0,0,0
-0.0266,0.0029,1.0557,-3.6641,-0.9695,3.0458,0,0,0
-0.0205,0.0027,1.041,-5.145,1.0153,5.3969,0,0,0
-0.0195,0.0166,1.0312,-4.7634,0.4809,6.0763,0,0,0
-0.0234,0.0327,1.0251,-2.2672,-1.2595,4.5802,0,0,0
-0.0229,0.0322,1.0178,-0.1679,-4.1221,2.2901,0,0,0
-0.0105,0.033,1.0181,1.0305,-6.1374,0.4046,0,0,0
-0.0139,0.0264,1.0271,1.145,-6.3969,0.0153,0,0,0
-0.0166,0.019,1.0264,0.0534,-5.7634,0.4809,0,0,0
-0.0127,0.0183,1.0322,-1.4733,-4.687,1.1298,0,0,0
-0.0132,0.0137,1.0317,-3.145,-3.1069,2.4656,0,0,0
-0.0127,0.0181,1.0137,-3.8855,-2.6947,3.2519,0,0,0
-0.0071,0.0256,0.998,-4.5954,-3.7099,3.145,0,0,0
-0.0095,0.0271,0.9968,-4.3664,-4.6336,2.3969,0,0,0
-0.0176,0.03,0.9827,-4.2824,-6.6489,0.8244,0,0,0
-0.012,0.0144,1.0046,-3.2977,-8.0153,0.0763,0,0,0
-0.0129,0.011,1.0205,-2.8244,-8.3359,0.2214,0,0,0
-0.012,0.0024,1.0234,-2.5878,-7.6412,1.3282,0,0,0
-0.0049,0.0042,1.0376,-2.1908,-6.8626,2.2214,0,0,0
0.0024,0.0173,1.0327,-2.4656,-6.2061,2.7405,0,0,0
0.002,0.0176,1.0415,-2.4122,-5.0534,2.0916,0,0,0
0.0046,0.0181,1.0276,-1.7099,-5.0153,1.3282,0,0,0
-0.0083,0.0251,1.0107,-0.5954,-5.8779,0.1374,0,0,0
-0.012,0.02,0.9983,0.3664,-8.1832,-1.1832,0,0,0
-0.0081,0.0032,1.0073,0.5649,-9.9924,-1.0916,0,0,0
-0.0103,0.0066,1.0168,-0.4046,-10.5649,-0.2748,0,0,0
-0.0081,-0.0005,1.0183,-2.1985,-9.9542,1.6412,0,0,0
-0.0046,0.0024,1.0359,-4.084,-8.2443,2.626,0,0,0
-0.0049,-0.0063,1.0376,-5.1832,-6.9389,3.8779,0,0,0
-0.0112,-0.0063,1.0229,-4.7557,-7.0458,5.1298,0,0,0
-0.0085,-0.0063,1.0254,-3.3053,-8.6565,6.0611,0,0,0
0.0012,-0.0054,1.0269,-2.1985,-9.7252,6.8015,0,0,0
0.0039,0.0007,1.0305,-1.916,-10.0229,6.8855,0,0,0
0.0142,0.0059,1.0291,-1.4885,-10.8397,6.8321,0,0,0
0.0051,0.01,1.0288,-0.8321,-10.7099,5.8626,0,0,0
0.0151,0.0042,1.0229,0.1298,-11.145,5.8321,0,0,0
0.012,-0.0007,1.0117,-0.4809,-11.7252,6.4275,0,0,0
0.0225,-0.0054,1.0254,-1.3206,-11.1374,7.4962,0,0,0
0.022,-0.0181,1.053,-3.6107,-9.2977,9.0153,0,0,0
0.0208,-0.0249,1.0725,-4.6565,-6.7328,10.9924,0,0,0
0.0286,-0.0295,1.0708,-4.8397,-3.8321,13.8855,0,0,0
0.0203,-0.019,1.0596,-3.7023,-2.4122,16.2366,0,0,0
0.0281,-0.0149,1.0408,-3.1985,-1.9771,17.5267,0,0,0
0.0327,-0.0227,1.0354,-2.7481,-3.2214,18.5725,0,0,0
0.0159,-0.0315,1.0632,-2.0611,-2.9237,19.2901,0,0,0
0.0125,-0.0381,1.0764,-0.7252,-1.687,21.3664,0,0,0
0.0227,-0.0479,1.0613,0.229,0.1298,25.084,0,0,0
0.0127,-0.0378,1.0505,0.145,0.6336,28.9084,0,0,0
0.0037,-0.0322,1.0142,-1.4122,0.5344,32.5115,0,0,0
0.0005,-0.0396,1.0002,-3.5038,-2.2214,35.7328,0,0,0
0.0146,-0.0334,1.0117,-2.6183,-2.9084,38.5496,0,0,0
0.0195,-0.0203,1.0239,-3.8855,-1.8168,40.4198,0,0,0
0.0303,-0.012,1.0371,-7.5725,0.6412,41.8244,0,0,0
0.0337,-0.0242,1.0649,-13.916,4.1908,43.7099,0,0,0
0.0305,-0.0205,1.0962,-19.145,10.3817,47.0076,0,0,0
0.0361,-0.0176,1.0933,-23.5725,17.7863,49.9924,0,0,0
0.0508,-0.0042,1.0835,-27.9618,24.145,51.8092,0,0,0
0.0483,-0.0054,1.0754,-29.5954,29.1221,50.9008,0,0,0
0.0518,-0.0129,1.0769,-28.5496,32.542,48.7099,0,0,0
0.0349,0.001,1.061,-26.7328,33.4504,45.5344,0,0,0
0.0168,0.001,1.0388,-25.7252,32.5344,42.5344,0,0,0
0.0071,-0.0281,1.0508,-25.0305,30.2061,40.8626,0,0,0
0.0005,-0.0374,1.0684,-24.0763,30.3206,39.4962,0,0,0
0.0037,-0.0469,1.0688,-21.7252,30.7634,39.3206,0,0,0
-0.0081,-0.0403,1.0684,-18.8168,31.6107,38.4809,0,0,0
-0.011,-0.0186,1.0461,-16.5573,32.0076,37.1832,0,0,0
-0.02,-0.0256,1.021,-14.8321,31.3969,34.7252,0,0,0
-0.0161,-0.0195,1.0061,-13.2519,29.5344,32.2366,0,0,0
-0.0327,-0.0264,0.9993,-12.2595,26.5802,30.4046,0,0,0
-0.0474,-0.0325,1.0122,-12.5115,23.6412,27.7252,0,0,0
-0.0532,-0.0315,1.0137,-12.0916,21.8473,26.2748,0,0,0
-0.0688,-0.0293,1.0117,-9.3969,19.9389,24.7557,0,0,0
-0.0645,-0.0254,1.0171,-6.626,17.458,23.3206,0,0,0
-0.0698,-0.033,0.9885,-2.4351,13.9542,21.4656,0,0,0
-0.0732,-0.0098,0.9658,2.145,7.9008,18.8015,0,0,0
-0.0828,0.0,0.9712,4.8779,3.4427,14.7405,0,0,0
-0.0654,-0.0005,0.9673,6.2977,-0.9847,11.229,0,0,0
-0.0574,0.0073,0.9746,5.0763,-3.7405,8.0,0,0,0
-0.0474,0.0134,0.9944,2.3206,-3.9618,5.5191,0,0,0
-0.0457,0.0063,1.0215,-0.3893,-1.9771,3.1832,0,0,0
-0.0454,0.0073,1.0386,-1.5725,0.5267,0.8015,0,0,0
-0.0471,0.0027,1.0312,-0.8397,1.5649,-1.7863,0,0,0
-0.051,0.0039,1.0142,0.2061,1.1679,-4.2366,0,0,0
-0.0557,0.0063,1.0159,1.5573,0.6336,-6.542,0,0,0
-0.0515,0.0022,1.0115,2.1832,-0.3206,-8.8168,0,0,0
-0.053,-0.0063,1.0144,2.3435,-0.6336,-10.3206,0,0,0
-0.0471,0.001,1.0264,3.1069,-0.8321,-11.6031,0,0,0
-0.043,0.0066,1.019,4.9542,-2.2214,-13.8015,0,0,0
-0.0295,0.0303,1.0115,7.1298,-4.3435,-16.9542,0,0,0
-0.0298,0.0537,1.03,10.0382,-6.5496,-23.0687,0,0,0
-0.0227,0.0571,1.0361,12.687,-7.0229,-30.4198,0,0,0
-0.0042,0.0488,1.0645,14.374,-5.6718,-37.5802,0,0,0
-0.0032,0.0439,1.0754,15.3206,-2.9237,-43.4122,0,0,0
-0.0083,0.0461,1.0547,16.1069,-1.145,-48.145,0,0,0
-0.0222,0.0251,1.0896,19.7023,-4.8015,-50.7557,0,0,0
0.0166,0.074,1.083,16.1221,1.8092,-59.6565,0,0,0
0.0032,0.0615,1.1116,18.1908,6.6641,-64.7405,0,0,0
-0.0076,0.0413,1.0979,17.8779,13.3893,-69.7634,0,0,0
-0.0149,0.0168,1.1011,17.8626,16.8473,-72.2672,0,0,0
-0.0107,0.0146,1.1426,20.084,22.6107,-74.084,0,0,0
-0.0037,0.0337,1.137,20.9389,28.5649,-76.0153,0,0,0
-0.0127,0.0498,1.1096,21.1221,33.5191,-79.916,0,0,0
-0.0415,0.0413,1.0869,21.2443,38.4046,-83.8855,0,0,0
-0.0864,-0.0044,1.0576,24.145,39.8473,-85.3435,0,0,0
-0.1118,-0.0469,1.0195,22.7328,38.6412,-84.626,0,0,0
-0.1411,-0.0754,1.0215,24.5344,35.4427,-80.855,0,0,0
-0.1636,-0.0928,1.0522,24.9542,33.9237,-75.626,0,0,0
-0.1665,-0.0999,1.0806,25.8473,35.8626,-68.7786,0,0,0
-0.1748,-0.0903,1.0593,24.3664,38.0382,-61.5573,0,0,0
-0.1763,-0.104,1.0571,23.7863,39.5573,-54.0,0,0,0
-0.165,-0.0803,1.0588,19.0916,42.7176,-48.8931,0,0,0
-0.1863,-0.0593,1.0518,16.7328,45.542,-44.6718,0,0,0
-0.2058,-0.0625,1.0232,15.5573,47.5649,-41.3893,0,0,0
-0.2175,-0.0693,0.9758,13.0916,45.8779,-38.4962,0,0,0
-0.2249,-0.0828,0.9656,10.687,42.2824,-33.9237,0,0,0
-0.2397,-0.0815,0.9856,8.0076,40.0611,-28.8779,0,0,0
-0.2598,-0.0781,0.9878,6.8931,38.313,-22.8397,0,0,0
-0.2625,-0.0742,0.978,7.2977,36.3206,-17.1756,0,0,0
-0.2656,-0.0566,0.9695,8.084,35.2214,-12.0382,0,0,0
-0.2593,-0.0576,0.9626,10.5496,33.2214,-8.0763,0,0,0
-0.2644,-0.0132,0.9519,12.1374,30.9084,-6.084,0,0,0
-0.2637,-0.0042,0.9031,13.6412,26.6412,-6.145,0,0,0
-0.2676,0.0208,0.8799,14.6031,19.7328,-7.2672,0,0,0
-0.26,0.0146,0.884,15.3053,12.2672,-7.9924,0,0,0
-0.2625,0.0374,0.9089,14.2443,8.771,-8.2672,0,0,0
-0.2488,0.0315,0.9343,10.229,6.5573,-8.3511,0,0,0
-0.2512,0.0369,0.9458,6.4504,7.0382,-7.6107,0,0,0
-0.2573,0.0293,0.9229,2.5038,7.2443,-6.2977,0,0,0
-0.2605,0.0256,0.9172,-1.0229,6.1069,-4.4351,0,0,0
-0.2693,0.0176,0.9119,-3.2443,4.5038,-3.5191,0,0,0
-0.2795,0.0195,0.9185,-4.7863,1.8244,-2.1985,0,0,0
-0.2732,0.0132,0.9333,-5.9847,-1.6718,-0.5573,0,0,0
-0.2791,0.0132,0.9419,-6.084,-3.4504,1.2519,0,0,0
-0.2681,0.01,0.9553,-4.9313,-6.3435,2.9237,0,0,0
-0.2559,0.0125,0.9917,-2.4809,-7.2595,4.6412,0,0,0
-0.2493,0.0261,1.0012,0.0229,-7.4504,5.2901,0,0,0
-0.249,0.0425,0.99,0.8473,-7.1298,5.2061,0,0,0
-0.2522,0.0391,0.9736,0.6031,-7.5573,5.0229,0,0,0
-0.2542,0.0339,0.9683,-0.6489,-8.0534,5.2595,0,0,0
-0.2659,0.0254,0.967,-1.9924,-9.3588,6.3969,0,0,0
-0.2678,0.0164,0.9448,-3.4733,-11.7252,8.9389,0,0,0
-0.2688,0.009,0.9338,-5.0687,-15.2366,12.2672,0,0,0
-0.2881,0.0044,0.9187,-6.5115,-19.4046,15.2137,0,0,0
-0.2744,0.0063,0.8965,-7.3359,-24.458,18.7634,0,0,0
-0.2815,0.0085,0.853,-10.5725,-29.7939,21.0687,0,0,0
-0.2952,0.0005,0.7959,-14.7634,-40.084,24.5649,0,0,0
-0.2961,0.0044,0.7854,-21.1985,-50.1069,28.626,0,0,0
-0.2866,-0.0232,0.7925,-28.2137,-58.0916,34.5573,0,0,0
-0.2695,-0.0442,0.7898,-37.2672,-64.0916,42.145,0,0,0
-0.2473,-0.0586,0.7971,-46.2214,-70.397,50.2214,0,0,0
-0.2095,-0.0789,0.823,-53.2595,-75.7252,58.2977,0,0,0
-0.1353,-0.0801,0.9719,-54.8626,-75.1756,63.8855,0,0,0
-0.0769,-0.0544,1.1125,-56.7328,-67.3664,66.0992,0,0,0
-0.0435,-0.0161,1.2122,-55.7634,-54.3282,64.6489,0,0,0
-0.0164,0.0071,1.1577,-52.5725,-42.5038,61.2901,0,0,0
-0.0054,0.0149,1.1206,-43.5267,-38.1756,56.4504,0,0,0
-0.0115,0.0503,1.0872,-33.458,-38.0,48.2824,0,0,0
-0.0225,0.0623,1.0085,-26.0229,-42.0687,37.8855,0,0,0
-0.0212,0.051,0.9939,-21.2366,-49.2901,26.4122,0,0,0
-0.0093,0.0054,1.1052,-15.229,-50.6641,17.3588,0,0,0
0.0017,-0.0325,1.1812,-9.4046,-45.916,12.4962,0,0,0
-0.0027,-0.0476,1.2322,-5.626,-37.4046,10.7863,0,0,0
0.0024,-0.0642,1.2305,-1.8855,-28.0763,13.2672,0,0,0
-0.0078,-0.0452,1.2048,3.3359,-18.5573,15.4809,0,0,0
-0.012,-0.0115,1.1372,7.374,-12.1679,15.0229,0,0,0
-0.0066,0.0076,1.0923,7.7634,-9.7252,12.4885,0,0,0
-0.0081,0.0054,1.0796,8.1908,-8.6947,9.2901,0,0,0
-0.0181,0.0054,1.0896,8.7863,-7.8702,6.8168,0,0,0
-0.0198,0.0032,1.0901,11.2901,-6.6412,6.0305,0,0,0
-0.0117,0.0137,1.1025,11.6718,-4.5802,5.4656,0,0,0
-0.0083,0.0217,1.1147,10.6336,-0.7099,5.0229,0,0,0
-0.0166,0.022,1.1035,9.1756,3.7786,2.7786,0,0,0
-0.0195,0.0264,1.0928,8.7863,6.542,0.0992,0,0,0
-0.0168,0.0039,1.095,9.2214,8.3206,-2.7939,0,0,0
-0.0322,-0.0032,1.1008,9.2824,10.0687,-4.084,0,0,0
-0.0442,-0.0132,1.0889,10.3435,12.0763,-4.1221,0,0,0
-0.0552,-0.0171,1.0647,11.9542,12.7405,-3.8015,0,0,0
-0.0625,-0.0105,1.0518,13.8779,11.9466,-3.8092,0,0,0
-0.0579,-0.0198,1.0366,15.8702,10.2061,-4.1832,0,0,0
-0.0559,-0.0215,1.0994,19.3206,9.458,-4.0534,0,0,0
-0.054,-0.0132,1.1233,22.0382,13.7939,-4.3053,0,0,0
-0.0483,-0.0056,1.1038,23.2519,17.8626,-4.0458,0,0,0
-0.0476,0.0059,1.0579,23.9389,20.5496,-4.0382,0,0,0
-0.0681,0.0234,0.9902,24.1527,19.4733,-5.0305,0,0,0
-0.0747,0.0315,0.95,22.7252,15.1908,-7.1832,0,0,0
-0.082,0.0393,0.9719,20.0611,12.3435,-8.9924,0,0,0
-0.0886,0.0264,0.9673,17.7557,10.7023,-9.4351,0,0,0
-0.0942,0.0159,0.9697,15.3359,8.9008,-8.2137,0,0,0
-0.1023,0.0222,0.9734,13.7252,7.6641,-5.771,0,0,0
-0.0957,0.0295,0.9553,11.7557,6.6641,-3.7176,0,0,0
-0.0884,0.0403,0.968,8.771,5.2366,-2.2061,0,0,0
-0.0911,0.0542,0.9792,6.0076,5.0916,-1.313,0,0,0
-0.0911,0.0618,0.9573,3.2366,5.0763,-2.0,0,0,0
-0.0798,0.0579,0.9678,0.9771,4.313,-1.5954,0,0,0
-0.0901,0.0657,0.9771,-1.2901,3.7557,-1.2214,0,0,0
-0.0933,0.0632,0.9778,-2.3053,3.0305,-1.9313,0,0,0
-0.1001,0.0593,0.9937,-2.7328,1.1069,-2.3664,0,0,0
-0.0977,0.0583,1.0063,-0.9695,-0.1374,-2.6947,0,0,0
-0.0901,0.0486,1.0125,0.8779,-1.4046,-2.6641,0,0,0
-0.0793,0.0518,1.02,1.4885,-2.4809,-2.4733,0,0,0
-0.0933,0.0557,1.0457,2.7481,-2.6336,-2.1603,0,0,0
-0.0803,0.0547,1.0398,2.6718,-1.8473,-1.7557,0,0,0
-0.0691,0.0583,1.0413,1.5878,-1.0229,-1.5267,0,0,0
-0.0776,0.0583,1.0576,1.5344,0.458,-1.7481,0,0,0
-0.0835,0.0649,1.052,2.8473,1.5649,-2.5802,0,0,0
-0.0781,0.0586,1.0305,3.855,1.6031,-3.5344,0,0,0
-0.0845,0.0586,1.0161,3.542,0.7557,-3.4885,0,0,0
-0.0852,0.061,1.0161,3.3359,-0.7405,-4.0458,0,0,0
-0.0881,0.0588,1.0332,2.6565,0.542,-3.6489,0,0,0
-0.095,0.0557,1.0271,2.084,2.0992,-3.2061,0,0,0
-0.0889,0.0574,1.0056,0.9924,2.4885,-2.2519,0,0,0
-0.0977,0.0562,0.9968,-0.1298,1.313,-1.8321,0,0,0
-0.1025,0.0627,0.9902,-1.145,-0.2061,-2.6183,0,0,0
-0.1084,0.0557,1.0044,-1.3817,-1.5115,-3.2901,0,0,0
-0.1084,0.05,1.019,-0.3053,-3.3664,-3.3282,0,0,0
-0.1084,0.043,1.0171,-0.0458,-4.8702,-2.6794,0,0,0
-0.1042,0.0493,1.0432,0.0992,-5.0763,-2.1985,0,0,0
-0.1082,0.0471,1.0601,0.3893,-3.4656,-1.1298,0,0,0
-0.0991,0.0391,1.0642,0.4504,-1.2061,0.0076,0,0,0
-0.0942,0.0532,1.0461,-0.3359,-0.3511,1.0076,0,0,0
-0.0935,0.0659,1.0305,-0.1374,-1.5038,1.8397,0,0,0
-0.085,0.0696,1.0439,0.3511,-1.9084,0.6794,0,0,0
-0.0808,0.0696,1.0691,1.7481,-1.9924,-0.9313,0,0,0
-0.085,0.0681,1.0552,3.458,-1.1832,-2.084,0,0,0
-0.0798,0.063,1.0518,4.6183,-0.4962,-2.3969,0,0,0
-0.0774,0.0723,1.0459,4.3664,0.1527,-2.3359,0,0,0
-0.0784,0.075,1.0366,3.8931,1.6718,-2.9542,0,0,0
-0.0876,0.0745,1.0295,3.5344,3.8473,-3.1069,0,0,0
-0.0886,0.0659,0.9905,3.1374,2.9084,-2.855,0,0,0
-0.0911,0.0735,0.9753,2.0687,0.9618,-2.5802,0,0,0
-0.0908,0.0662,0.9817,1.2519,-0.7328,-3.1527,0,0,0
-0.0901,0.0618,1.0007,0.2443,-1.5267,-2.4656,0,0,0
-0.084,0.0588,1.0085,-0.8855,-2.4809,-2.0916,0,0,0
-0.0764,0.0579,1.0264,-1.1832,-1.687,-1.5878,0,0,0
-0.0771,0.0667,1.0298,-1.0534,0.2214,-1.3053,0,0,0
-0.0828,0.075,1.0251,0.6947,1.8397,-1.4809,0,0,0
-0.0845,0.0718,1.0,1.8473,1.5573,-2.1527,0,0,0
-0.0872,0.0693,0.9797,2.2061,-1.3588,-2.626,0,0,0
-0.0959,0.0664,0.9946,2.2748,-4.2672,-3.626,0,0,0
-0.0967,0.0601,1.0073,1.6641,-5.5802,-3.8168,0,0,0
-0.0874,0.0398,1.0383,0.3511,-5.7176,-2.3282,0,0,0
-0.0884,0.0391,1.0635,-0.5038,-3.3511,-0.4656,0,0,0
-0.0803,0.0532,1.0549,-1.1908,-0.542,1.3969,0,0,0
-0.0791,0.0588,1.0361,-1.8015,0.5344,2.3282,0,0,0
-0.0837,0.0747,1.0293,-1.4656,0.9695,1.2824,0,0,0
-0.0923,0.0698,1.0132,-0.2595,0.1145,-0.0992,0,0,0
-0.0969,0.0652,1.0032,1.2519,-2.1221,-2.1374,0,0,0
-0.0972,0.0552,0.9971,1.1221,-4.5573,-2.5267,0,0,0
-0.1021,0.0483,1.0151,-0.0382,-5.3053,-1.542,0,0,0
-0.1021,0.0408,1.0286,-1.3206,-4.3664,0.5802,0,0,0
-0.0928,0.0439,1.0364,-2.3817,-2.7328,2.8244,0,0,0
-0.0859,0.0571,1.0364,-3.8168,-0.771,4.6031,0,0,0
-0.0876,0.0681,1.0427,-3.145,0.1756,5.5649,0,0,0
-0.0791,0.0808,1.0315,-1.9389,0.5573,4.4122,0,0,0
-0.074,0.084,1.0208,-1.1603,-0.2519,3.1145,0,0,0
-0.0762,0.0862,1.0161,-0.6412,-1.6565,0.9542,0,0,0
-0.0813,0.0842,1.0217,0.4275,-2.9313,-0.1374,0,0,0
-0.0774,0.071,1.0276,0.4962,-2.7328,-0.1832,0,0,0
-0.075,0.0698,1.0325,-0.7634,-1.8855,1.0611,0,0,0
-0.0745,0.074,1.0339,-2.1069,-0.7634,1.8626,0,0,0
-0.0769,0.0789,1.0266,-3.9618,0.3817,1.8931,0,0,0
-0.0752,0.0759,1.0242,-5.1832,1.2901,1.3053,0,0,0
-0.083,0.0706,1.0312,-5.7328,1.3053,1.2061,0,0,0
-0.0881,0.0742,1.0354,-4.5573,1.1374,1.145,0,0,0
-0.0891,0.0701,1.0271,-3.0305,0.5649,0.9847,0,0,0
-0.0911,0.0798,1.0186,-2.2366,0.2366,0.5191,0,0,0
-0.0908,0.0752,1.0156,-1.5191,-0.6794,0.1985,0,0,0
-0.0935,0.0823,1.0112,-1.4809,-1.2137,-0.145,0,0,0
-0.0967,0.0762,1.0095,-1.3359,-2.0916,-0.1298,0,0,0
-0.0908,0.0703,1.0203,-1.2901,-1.9924,0.2214,0,0,0
-0.0862,0.0698,1.04,-0.8779,-1.0687,0.6412,0,0,0
-0.0884,0.0742,1.0417,-0.4733,0.3969,0.8473,0,0,0
-0.0869,0.0808,1.0244,-0.1374,0.7328,0.8931,0,0,0
-0.0862,0.0823,1.0056,-0.0992,0.1374,0.3664,0,0,0
-0.0872,0.0894,0.9958,-0.5344,-1.2519,-0.3511,0,0,0
-0.0908,0.0845,1.0017,-0.7939,-2.0763,-0.8779,0,0,0
-0.092,0.0752,1.0093,-0.6031,-2.855,-1.4809,0,0,0
-0.0854,0.0664,1.02,-1.0534,-3.3206,-0.8779,0,0,0
-0.0859,0.0737,1.0273,-0.855,-2.6794,0.2519,0,0,0
-0.082,0.0791,1.0315,-1.0916,-1.8473,0.8397,0,0,0
-0.0637,0.0769,1.0264,-2.1679,-0.771,0.8855,0,0,0
-0.0671,0.0886,1.0356,-3.0916,0.0076,0.313,0,0,0
-0.0745,0.0789,1.0347,-3.0534,-0.2061,-0.2061,0,0,0
-0.0696,0.0771,1.0339,-1.5191,-0.0229,-0.8473,0,0,0
-0.0708,0.075,1.0271,-1.4275,-0.2443,-2.3282,0,0,0
-0.0747,0.0698,1.0354,-1.5344,-1.2824,-2.7939,0,0,0
-0.0801,0.0662,1.0449,-2.3664,-0.4733,-3.5802,0,0,0
-0.0806,0.0601,1.0493,-2.6412,0.8855,-3.4962,0,0,0
-0.083,0.0522,1.0398,-3.2214,1.7557,-2.9466,0,0,0
-0.0874,0.052,1.0398,-3.2366,1.6412,-1.9695,0,0,0
-0.0925,0.0562,1.0339,-2.4275,1.7328,-0.8473,0,0,0
-0.0889,0.0549,1.0176,-1.229,1.0458,-0.4351,0,0,0
-0.0845,0.0588,1.0137,-0.8779,-0.1908,-0.0382,0,0,0
-0.0903,0.0696,1.0168,-0.542,-0.626,-0.5725,0,0,0
-0.0889,0.0635,1.0151,-0.4962,-0.1069,-1.084,0,0,0
-0.082,0.0605,1.0244,-0.4504,1.0076,-0.3206,0,0,0
-0.083,0.0613,1.0195,-0.8855,1.9313,0.8168,0,0,0
-0.0815,0.0676,1.0,-1.0229,1.6641,1.3588,0,0,0
-0.0833,0.0818,0.9978,-0.7099,1.3206,1.1832,0,0,0
-0.084,0.0867,0.9814,-0.6412,0.2214,0.4656,0,0,0
-0.0823,0.0891,0.9766,-0.5573,-0.9237,-0.626,0,0,0
-0.0835,0.0908,0.989,-1.3893,-2.1221,-1.3664,0,0,0
-0.0879,0.0872,0.9968,-2.7176,-2.6718,-2.0076,0,0,0
-0.0842,0.0681,1.0076,-4.2595,-2.4427,-1.8244,0,0,0
-0.0884,0.0591,1.0266,-5.7634,-1.8015,-0.6107,0,0,0
-0.0938,0.064,1.0291,-5.5344,-1.7634,0.3817,0,0,0
-0.0876,0.0623,1.0286,-5.4351,-2.2748,1.3206,0,0,0
-0.0869,0.0645,1.0405,-4.7481,-2.1221,1.7481,0,0,0
-0.0859,0.0776,1.0513,-3.2901,-2.0153,0.9847,0,0,0
-0.0776,0.0781,1.0437,-1.6794,-2.0992,0.4885,0,0,0
-0.075,0.0784,1.0474,-1.6183,-1.6183,-0.1527,0,0,0
-0.0815,0.0811,1.0422,-2.0153,-1.5878,-1.2977,0,0,0
-0.0737,0.0708,1.0488,-2.7634,-1.3359,-1.6565,0,0,0
-0.0767,0.0623,1.0566,-4.2748,0.4427,-1.2519,0,0,0
-0.0813,0.0566,1.063,-4.6641,2.0229,-0.8092,0,0,0
-0.0796,0.0544,1.0508,-4.0229,2.7863,-0.1298,0,0,0
-0.084,0.0588,1.0461,-2.8473,2.855,0.145,0,0,0
-0.0903,0.0613,1.033,-1.1221,2.4504,-0.2748,0,0,0
-0.0845,0.0676,1.0193,0.8473,1.2672,-0.9847,0,0,0
-0.0891,0.0706,1.0134,0.9695,-0.1985,-1.5496,0,0,0
-0.0928,0.0696,1.0012,0.2366,-0.3969,-1.4809,0,0,0
-0.082,0.0632,1.0061,-1.3053,-0.0763,-1.0916,0,0,0
-0.0833,0.0654,1.0159,-2.5725,0.2672,-0.0305,0,0,0
-0.0859,0.0659,1.0142,-3.5115,1.7023,0.1527,0,0,0
-0.0857,0.0681,1.0137,-3.4656,1.8931,0.5115,0,0,0
-0.0837,0.0688,1.0085,-2.8626,1.4351,0.1756,0,0,0
-0.0857,0.0759,1.0085,-2.8855,0.6031,-0.313,0,0,0
-0.0898,0.0784,1.0049,-2.1374,-0.374,-1.3282,0,0,0
-0.0874,0.0674,1.0095,-2.1908,-1.2748,-1.8015,0,0,0
-0.092,0.0596,1.0151,-2.5496,-1.7405,-1.626,0,0,0
-0.092,0.0586,1.0154,-1.5496,-2.2977,-1.4046,0,0,0
-0.0872,0.0649,1.0264,-1.0916,-2.1756,-0.3969,0,0,0
-0.085,0.0632,1.0354,-1.2443,-1.9466,-0.458,0,0,0
-0.0842,0.0679,1.0347,-1.4198,-2.1832,-0.3282,0,0,0
-0.0815,0.0679,1.0386,-1.8015,-2.0076,-0.4962,0,0,0
-0.0837,0.0654,1.0461,-2.3664,-1.3817,-0.3435,0,0,0
-0.0835,0.0632,1.0586,-2.3588,0.2748,-0.2901,0,0,0
-0.083,0.0684,1.0605,-1.4198,1.5267,-0.1145,0,0,0
-0.0835,0.0725,1.0544,-0.1679,1.9924,-0.1069,0,0,0
-0.0818,0.0825,1.0342,0.8397,1.6718,-0.7939,0,0,0
-0.0898,0.0801,1.0229,1.1985,0.8321,-1.7405,0,0,0
-0.0825,0.0837,1.0232,1.229,0.9008,-2.9618,0,0,0
-0.0894,0.0747,1.0303,0.3664,1.8626,-3.5038,0,0,0
-0.0935,0.0596,1.0295,-1.5267,2.1298,-2.8015,0,0,0
-0.0901,0.0559,1.03,-2.0076,2.3435,-1.7328,0,0,0
-0.0911,0.0586,1.0266,-1.4733,2.8244,-0.8092,0,0,0
-0.0989,0.0737,1.0227,-0.542,3.4733,-0.3206,0,0,0
-0.0906,0.073,0.9968,1.0305,2.8244,-0.916,0,0,0
-0.0916,0.0828,0.9851,1.5267,1.2901,-1.3664,0,0,0
-0.0947,0.0854,0.9819,1.6107,-0.5878,-1.7176,0,0,0
-0.0918,0.0874,0.9956,1.7328,-1.7405,-2.1527,0,0,0
-0.0828,0.0864,0.9968,0.3282,-1.5725,-2.0992,0,0,0
-0.0801,0.0803,1.0095,-1.916,-1.1374,-1.6947,0,0,0
-0.0796,0.0842,1.0186,-3.4809,-0.313,-1.8321,0,0,0
-0.0779,0.0771,1.0176,-5.3969,0.7939,-1.9466,0,0,0
-0.0828,0.074,1.0198,-5.6641,1.313,-2.1985,0,0,0
-0.0938,0.0703,1.0225,-4.6031,1.0687,-2.6565,0,0,0
-0.1033,0.0679,1.0002,-2.4046,-0.3893,-3.4504,0,0,0
-0.1018,0.0632,1.0002,-1.2137,-3.2137,-3.4046,0,0,0
-0.104,0.071,1.009,-0.626,-4.6489,-3.0,0,0,0
-0.1021,0.0728,1.033,-1.0763,-4.7176,-2.3282,0,0,0
-0.0969,0.0728,1.052,-2.4809,-3.1603,-1.1908,0,0,0
-0.0898,0.0715,1.0469,-3.7176,-1.2977,-0.2595,0,0,0
-0.0906,0.0796,1.0354,-3.7557,-0.5725,-0.3435,0,0,0
-0.0894,0.0781,1.0359,-3.0763,-1.1221,-0.9771,0,0,0
-0.084,0.0757,1.0242,-1.6336,-2.3053,-1.855,0,0,0
-0.0854,0.0759,1.031,-1.0153,-3.4427,-3.1374,0,0,0
-0.0872,0.0745,1.042,-1.2672,-2.7481,-3.7481,0,0,0
-0.0825,0.0549,1.0505,-2.0229,-1.5573,-2.9695,0,0,0
-0.0781,0.0427,1.0522,-3.0,0.0687,-1.5344,0,0,0
-0.0808,0.0488,1.0513,-3.2214,2.2748,-0.6412,0,0,0
-0.0825,0.0549,1.0581,-2.5649,3.5344,-0.2977,0,0,0
-0.0881,0.0559,1.0378,-0.9008,3.5954,-0.9771,0,0,0
-0.0972,0.0579,1.0085,0.9847,1.9237,-1.4427,0,0,0
-0.0986,0.0637,0.9946,0.8092,-0.6336,-2.0916,0,0,0
-0.1069,0.0632,0.9883,0.3053,-3.0,-1.687,0,0,0
-0.0935,0.0569,1.0247,-0.6031,-1.7786,-1.0534,0,0,0
-0.0886,0.0591,1.0227,-2.6412,0.3511,0.6565,0,0,0
-0.0957,0.0728,1.0146,-3.4198,0.9313,1.8168,0,0,0
-0.0974,0.0813,1.0051,-3.084,1.2443,1.5725,0,0,0
-0.095,0.0811,0.9954,-2.2824,-0.6183,0.916,0,0,0
-0.0862,0.075,1.0068,-1.8931,-1.9847,-0.1527,0,0,0
-0.0842,0.0793,1.032,-0.8626,-2.2595,-0.8931,0,0,0
-0.0774,0.0676,1.0374,-0.3969,-1.5802,-0.4962,0,0,0
-0.072,0.0686,1.0295,-0.4504,0.1832,-0.1221,0,0,0
-0.0791,0.0715,1.0164,-0.9847,0.0992,0.4046,0,0,0
-0.0818,0.0896,1.0125,-1.8702,0.0458,-0.8626,0,0,0
-0.0798,0.0757,1.0051,-2.458,-0.1985,-1.771,0,0,0
-0.0884,0.0647,1.0151,-2.771,-1.1756,-2.0916,0,0,0
-0.0903,0.0652,1.0225,-2.2443,-1.0534,-3.2519,0,0,0
-0.0967,0.0615,1.0181,-1.8779,-0.4885,-2.6031,0,0,0
-0.1047,0.0605,0.9998,-1.6794,-1.3053,-2.0076,0,0,0
-0.1094,0.0574,0.9941,-2.2214,-2.1832,-1.4198,0,0,0
-0.1077,0.0637,1.0164,-3.0534,-2.2214,-0.2595,0,0,0
-0.1025,0.0657,1.0281,-3.6489,-2.5115,1.542,0,0,0
-0.0908,0.0728,1.05,-3.687,-1.7328,2.3817,0,0,0
-0.0828,0.0774,1.0693,-2.8702,-0.5267,2.2519,0,0,0
-0.0662,0.0869,1.0723,-1.9847,1.0763,1.4962,0,0,0
-0.0659,0.0796,1.0427,-0.6641,1.7481,-0.4504,0,0,0
-0.0745,0.0859,1.0166,0.0229,2.0076,-2.9084,0,0,0
-0.0876,0.0789,1.02,-0.2901,1.0992,-4.5115,0,0,0
-0.092,0.0679,1.0071,-1.2443,0.4351,-4.5344,0,0,0
-0.106,0.061,1.0151,-1.5725,0.1374,-2.7023,0,0,0
-0.1069,0.0562,1.0205,-1.5649,-0.229,-1.2137,0,0,0
-0.0938,0.0645,1.0125,-2.1832,-0.2672,0.5115,0,0,0
-0.0959,0.0718,1.0078,-2.3435,-1.0458,0.3359,0,0,0
-0.0908,0.0757,1.0002,-2.542,-1.9313,-0.1221,0,0,0
-0.0879,0.0759,1.0093,-2.8321,-2.7939,-1.1603,0,0,0
-0.0837,0.0725,1.0181,-2.7328,-3.4885,-2.2137,0,0,0
-0.0806,0.0586,1.0159,-2.5115,-3.458,-2.2137,0,0,0
-0.0859,0.0542,1.0295,-3.7481,-2.3817,-2.2366,0,0,0
-0.0933,0.0527,1.0317,-4.2595,-0.9771,-2.2061,0,0,0
-0.0933,0.0481,1.0278,-4.5573,-0.7252,-1.9924,0,0,0
-0.0938,0.0408,1.0315,-5.1374,-0.4046,-1.1908,0,0,0
-0.0964,0.041,1.0432,-4.4656,-0.9389,0.0305,0,0,0
-0.0889,0.0396,1.0481,-3.4885,-0.8855,1.0229,0,0,0
-0.0767,0.0415,1.0525,-2.8855,-0.5573,1.626,0,0,0
-0.0742,0.052,1.0608,-3.1603,0.5802,2.2748,0,0,0
-0.074,0.0566,1.0593,-3.0305,2.0763,1.2901,0,0,0
-0.0776,0.0659,1.0576,-3.1679,3.7023,0.0992,0,0,0
-0.094,0.0681,1.0386,-2.6947,4.1679,-1.3817,0,0,0
-0.1023,0.0649,1.0256,-2.3664,3.8626,-2.2214,0,0,0
-0.1069,0.0588,1.0137,-1.0687,2.9084,-2.4427,0,0,0
-0.106,0.0547,1.01,-0.1603,2.4046,-1.5496,0,0,0
-0.1072,0.0613,1.0034,1.1527,1.9618,-0.374,0,0,0
-0.1016,0.074,0.9888,1.5038,1.6489,0.3969,0,0,0
-0.1035,0.0928,0.9856,1.2443,0.855,0.3053,0,0,0
-0.105,0.1016,0.9812,1.2901,0.2824,-0.4504,0,0,0
-0.106,0.0989,0.968,1.4733,-0.9542,-1.2824,0,0,0
-0.1089,0.0938,0.9802,1.4198,-2.9008,-1.8244,0,0,0
-0.0996,0.0784,0.9915,1.2137,-4.2672,-1.4351,0,0,0
-0.0842,0.0637,1.0266,0.9847,-4.8015,0.5802,0,0,0
-0.0718,0.0569,1.0608,1.4427,-3.145,2.4809,0,0,0
-0.0537,0.0869,1.0417,1.229,-1.1908,3.5802,0,0,0
-0.0483,0.1155,1.0291,1.4504,-0.145,2.3664,0,0,0
-0.05,0.126,1.0107,1.2137,0.0458,-0.6031,0,0,0
-0.0583,0.1174,1.0042,0.2901,-0.5115,-4.8855,0,0,0
-0.0723,0.0986,1.0051,-1.0992,-1.9847,-7.9466,0,0,0
-0.0859,0.0647,1.0198,-2.1527,-2.7863,-8.3969,0,0,0
-0.0991,0.0405,1.0505,-3.687,-2.1985,-6.5115,0,0,0
-0.0959,0.0168,1.0569,-3.6947,-1.0534,-3.313,0,0,0
-0.0977,0.0266,1.0632,-3.7023,0.6641,-0.2824,0,0,0
-0.0964,0.0408,1.0464,-3.0916,1.4733,1.2366,0,0,0
-0.0959,0.0518,1.0354,-2.1221,1.0687,0.0153,0,0,0
-0.0994,0.0615,1.0208,-1.8092,0.0153,-1.6107,0,0,0
-0.1118,0.0588,1.021,-1.2748,-1.1679,-2.8244,0,0,0
-0.1165,0.0486,1.0254,-1.3664,-1.5038,-2.7863,0,0,0
-0.1177,0.0466,1.01,-1.9008,-1.6794,-1.5802,0,0,0
-0.1165,0.0471,1.0227,-2.5725,-1.5267,1.1221,0,0,0
-0.1199,0.0593,1.0208,-2.542,-0.3664,2.9008,0,0,0
-0.0994,0.0735,1.0063,-2.8321,-0.1374,4.145,0,0,0
-0.0933,0.093,0.9924,-3.3664,-0.8626,3.9237,0,0,0
-0.0881,0.0981,0.9922,-3.1069,-2.3053,1.7481,0,0,0
-0.0825,0.0938,1.0132,-3.0458,-3.4885,0.1679,0,0,0
-0.0825,0.0935,1.0308,-3.0076,-3.6718,-0.8473,0,0,0
-0.0752,0.0779,1.0459,-2.3282,-2.0763,-1.0382,0,0,0
-0.0767,0.0762,1.0474,-2.0992,-0.9847,0.0534,0,0,0
-0.073,0.0876,1.0315,-1.8626,0.1679,-0.626,0,0,0
-0.0686,0.0874,1.0291,-2.4122,0.2214,-0.916,0,0,0
-0.0652,0.0859,1.0315,-3.3053,0.0763,-1.7099,0,0,0
-0.0667,0.0803,1.0435,-3.855,-0.2061,-2.6031,0,0,0
-0.074,0.0664,1.0627,-3.6641,0.8321,-3.5267,0,0,0
-0.0798,0.053,1.0613,-2.771,1.2901,-4.1374,0,0,0
-0.0806,0.0413,1.0549,-1.5725,2.7023,-3.3588,0,0,0
-0.0864,0.0408,1.0442,-0.4351,3.2443,-2.9771,0,0,0
-0.093,0.04,1.0269,-0.084,3.7328,-2.2672,0,0,0
-0.0898,0.0432,1.0029,0.1069,3.5038,-1.9389,0,0,0
-0.095,0.0515,0.9841,-0.1985,2.9542,-1.0763,0,0,0
-0.1028,0.0557,0.9727,-0.7176,2.2061,-1.3206,0,0,0
-0.1101,0.0605,0.9604,-1.1145,0.5344,-1.3893,0,0,0
-0.1143,0.0579,0.9507,-1.6031,-1.1908,-1.8855,0,0,0
-0.1187,0.0645,0.9651,-2.3664,-3.0153,-1.6489,0,0,0
-0.115,0.0476,0.9744,-2.6947,-5.6031,0.9084,0,0,0
-0.1072,0.0496,0.9983,-4.2901,-6.0458,2.229,0,0,0
-0.093,0.0464,1.0374,-5.1985,-4.9466,4.3969,0,0,0
-0.0813,0.0554,1.0547,-6.2672,-2.8855,5.9695,0,0,0
-0.071,0.0718,1.0623,-6.2977,-0.8244,6.2672,0,0,0
-0.0754,0.0791,1.05,-5.6947,0.5191,4.626,0,0,0
-0.0784,0.0747,1.0483,-4.9771,0.1756,2.6641,0,0,0
-0.092,0.0688,1.0374,-3.2901,-1.5038,0.8855,0,0,0
-0.094,0.0618,1.0481,-2.0992,-3.0,0.5649,0,0,0
-0.0933,0.0574,1.0657,-1.4427,-3.1908,1.0382,0,0,0
-0.0886,0.053,1.0791,-0.8244,-2.4885,2.0,0,0,0
-0.0813,0.0645,1.082,-0.8779,-0.3435,3.3359,0,0,0
-0.0796,0.0771,1.0649,-1.0,1.2519,3.6031,0,0,0
-0.0796,0.0911,1.051,-1.3817,2.145,2.4809,0,0,0
-0.0815,0.0872,1.0388,-1.9924,2.855,0.4504,0,0,0
-0.0791,0.0862,1.0269,-2.2977,3.1221,-0.8244,0,0,0
-0.0935,0.0784,1.0166,-2.1603,3.145,-1.6183,0,0,0
-0.0955,0.0625,1.0164,-2.6336,3.1908,-1.6107,0,0,0
-0.1023,0.0554,1.0198,-2.9924,3.4351,-0.5191,0,0,0
-0.1008,0.0618,1.0137,-2.8931,3.9313,0.6336,0,0,0
-0.0996,0.0671,1.0046,-2.2519,4.0458,1.6947,0,0,0
-0.0911,0.0762,0.9937,-1.4351,3.4427,1.6489,0,0,0
-0.093,0.0913,0.9768,-1.5191,1.7099,0.9313,0,0,0
-0.0938,0.094,0.9863,-1.9313,-0.0458,-0.9389,0,0,0
-0.0986,0.0942,0.9954,-1.4275,-0.6336,-1.8931,0,0,0
-0.0945,0.0845,0.9929,-1.1679,-1.2748,-2.5878,0,0,0
-0.095,0.0793,0.9998,-2.2214,-2.229,-2.458,0,0,0
-0.0847,0.0798,1.0273,-3.2137,-1.3588,-2.0153,0,0,0
-0.0876,0.0811,1.0291,-3.8855,0.2061,-1.8473,0,0,0
-0.0886,0.0793,1.0261,-4.5191,1.2824,-1.6336,0,0,0
-0.0889,0.0857,1.0132,-5.0,0.5038,-2.7176,0,0,0
-0.0925,0.0825,1.0107,-5.3359,-0.4809,-3.4504,0,0,0
-0.0916,0.0757,1.0239,-5.7023,-1.0534,-4.6718,0,0,0
-0.0989,0.0652,1.0427,-5.626,-0.5267,-5.1832,0,0,0
-0.0959,0.0527,1.0273,-5.542,0.3893,-5.3206,0,0,0
-0.0981,0.0469,1.0181,-5.145,0.2977,-4.2901,0,0,0
-0.1038,0.0383,1.0129,-5.3053,0.0687,-3.4962,0,0,0
-0.1069,0.0386,1.0151,-4.626,-0.9847,-3.0076,0,0,0
-0.1028,0.0391,1.0227,-3.7786,-1.9237,-2.2366,0,0,0
-0.0918,0.0417,1.0315,-3.3893,-2.0687,-1.4733,0,0,0
-0.092,0.0425,1.0303,-2.9084,-1.9618,-0.9542,0,0,0
-0.0886,0.0518,1.0325,-2.7786,-1.229,-0.8092,0,0,0
-0.0876,0.0544,1.0259,-3.2519,-0.9313,-1.2901,0,0,0
-0.0901,0.054,1.0269,-3.4275,-0.0382,-2.0229,0,0,0
-0.0908,0.0466,1.0188,-3.8779,0.0382,-2.626,0,0,0
-0.093,0.0466,1.0239,-4.4275,0.084,-1.8244,0,0,0
-0.0979,0.0415,1.0256,-4.6718,0.3664,-1.6947,0,0,0
-0.1006,0.0405,1.0247,-4.229,0.0153,-0.9695,0,0,0
-0.0886,0.0491,1.0076,-4.2061,-0.1832,-0.145,0,0,0
-0.092,0.0557,1.0122,-4.2595,-0.2672,0.1145,0,0,0
-0.0874,0.0579,1.0186,-3.6565,-0.4351,-0.313,0,0,0
-0.0811,0.0579,1.0322,-2.8931,-0.4122,-0.9695,0,0,0
-0.0854,0.0571,1.0293,-3.145,0.6412,-1.5115,0,0,0
-0.0928,0.0601,1.0093,-3.1374,0.8015,-2.7099,0,0,0
-0.1006,0.0547,1.0063,-3.916,-0.1527,-3.3969,0,0,0
-0.1038,0.0464,1.0127,-4.2366,-1.5191,-3.4046,0,0,0
-0.105,0.0317,1.0215,-4.7176,-2.3511,-2.8702,0,0,0
-0.104,0.0339,1.0334,-4.3588,-2.4733,-1.5649,0,0,0
-0.1079,0.0293,1.031,-3.771,-2.0076,-0.6947,0,0,0
-0.1018,0.0339,1.0349,-2.9313,-2.4733,-0.4733,0,0,0
-0.1035,0.0486,1.0249,-2.5649,-2.3511,-0.3511,0,0,0
-0.1008,0.0474,1.0273,-1.5267,-2.3893,-1.3053,0,0,0
-0.0945,0.0425,1.0356,-1.7099,-2.7786,-1.3588,0,0,0
-0.0955,0.0435,1.0396,-2.084,-1.9237,-1.4427,0,0,0
-0.0925,0.0388,1.0422,-3.0305,-1.3053,-1.0305,0,0,0
-0.0913,0.0339,1.0476,-3.313,-0.2443,-0.4275,0,0,0
-0.0942,0.041,1.043,-3.3359,0.6718,0.2748,0,0,0
-0.0906,0.0513,1.032,-2.9313,1.1145,0.7557,0,0,0
-0.092,0.053,1.0208,-1.7252,1.0153,0.2214,0,0,0
-0.095,0.0615,1.0071,-0.7481,-0.2443,-0.626,0,0,0
-0.0925,0.062,0.9995,-0.458,-1.3053,-1.916,0,0,0
-0.0994,0.0581,1.0071,-0.5725,-1.687,-2.8092,0,0,0
-0.1011,0.0493,1.0144,-1.2595,-2.0153,-2.6641,0,0,0
-0.0984,0.041,1.0132,-1.7481,-1.8626,-2.0687,0,0,0
-0.0986,0.0427,1.019,-1.8397,-1.6641,-1.1221,0,0,0
-0.0974,0.0576,1.0217,-1.4198,-1.1908,-0.7023,0,0,0
-0.085,0.053,1.0156,-1.084,-1.3588,-0.8092,0,0,0
-0.0845,0.0654,1.021,-0.6107,-2.1221,-0.9695,0,0,0
-0.092,0.0811,1.0217,-0.9389,-3.0611,-2.374,0,0,0
-0.0842,0.0686,1.0193,-1.1527,-3.7634,-2.1527,0,0,0
-0.0842,0.0581,1.0408,-1.0153,-3.5725,-2.1908,0,0,0
-0.0784,0.0637,1.0632,-0.5802,-2.4351,-1.7252,0,0,0
-0.0757,0.0635,1.0613,-0.1679,-0.9618,-1.5191,0,0,0
-0.0662,0.0649,1.0518,-0.1221,0.1069,-1.6947,0,0,0
-0.0713,0.0615,1.0447,-0.9084,0.7328,-2.4122,0,0,0
-0.0767,0.061,1.042,-1.7176,0.7328,-3.2748,0,0,0
-0.0818,0.0549,1.0386,-2.6641,0.9695,-4.0992,0,0,0
-0.0842,0.0457,1.0491,-3.0992,2.0992,-4.0687,0,0,0
-0.0898,0.0376,1.0437,-3.2824,2.855,-3.7634,0,0,0
-0.0933,0.0342,1.0278,-2.8015,3.2443,-3.1832,0,0,0
-0.0964,0.0293,1.0168,-1.8244,3.084,-3.3511,0,0,0
-0.0996,0.0295,1.0171,-0.7405,2.4046,-3.0992,0,0,0
-0.1106,0.03,1.0178,0.1756,1.771,-3.3359,0,0,0
-0.1067,0.0242,1.0039,0.7786,0.4733,-2.7023,0,0,0
-0.1084,0.0237,1.0098,0.7252,-0.1298,-1.7405,0,0,0
-0.1104,0.0315,1.0188,0.4122,-0.1298,-0.7099,0,0,0
-0.1074,0.0303,1.0129,-0.2901,0.6412,0.1908,0,0,0
-0.105,0.0359,1.019,-0.4656,0.771,0.7176,0,0,0
-0.1001,0.0415,1.0103,-0.2061,1.1908,1.4504,0,0,0
-0.1021,0.0505,1.0107,-0.3053,0.4885,1.6412,0,0,0
-0.1047,0.0608,1.0088,0.1832,0.1069,0.9466,0,0,0
-0.1042,0.0571,0.999,0.0458,-0.8626,0.3588,0,0,0
-0.0999,0.0547,1.0029,-0.7863,-1.9771,0.145,0,0,0
-0.1003,0.0522,1.0142,-1.4504,-2.3359,0.1756,0,0,0
-0.0967,0.0479,1.0293,-1.6489,-1.8168,0.7481,0,0,0
-0.0955,0.0471,1.0344,-1.2519,-1.8321,1.5191,0,0,0
-0.0872,0.0586,1.0278,-0.5344,-1.8626,2.2672,0,0,0
-0.0828,0.0703,1.0354,-0.8015,-1.8626,2.5038,0,0,0
-0.0793,0.0781,1.041,-1.4122,-0.855,1.6565,0,0,0
-0.0708,0.0815,1.0415,-2.3893,0.0305,0.6336,0,0,0
-0.0735,0.0837,1.0466,-2.5649,1.1908,-0.7863,0,0,0
-0.0793,0.0754,1.0334,-2.0153,1.458,-2.4733,0,0,0
-0.093,0.0686,1.0261,-1.4962,1.2519,-3.4351,0,0,0
-0.0935,0.0525,1.021,-1.0305,0.3511,-3.6336,0,0,0
-0.1018,0.0491,1.0266,-0.3969,0.4504,-3.2748,0,0,0
-0.0957,0.0461,1.0396,-0.3359,0.5038,-2.6641,0,0,0
-0.1008,0.0435,1.0303,-0.1298,0.9008,-1.3817,0,0,0
-0.0984,0.052,1.0291,-0.5649,1.9237,-0.3969,0,0,0
-0.0984,0.0549,1.0203,-0.9237,1.9771,-0.1374,0,0,0
-0.0945,0.0627,1.0195,-1.458,2.1527,-0.7252,0,0,0
-0.0947,0.0635,1.0112,-1.4504,2.0076,-1.8321,0,0,0
-0.0986,0.0627,1.0073,-1.3435,1.2595,-2.2824,0,0,0
-0.0994,0.0593,1.0271,-1.0076,0.6947,-2.7099,0,0,0
-0.0962,0.0562,1.0388,-0.084,0.7939,-2.6947,0,0,0
-0.1033,0.0566,1.0269,0.3588,1.6565,-2.4962,0,0,0
-0.0972,0.0532,1.0186,0.0611,1.7481,-2.6565,0,0,0
-0.1023,0.0591,1.012,-1.0458,1.3969,-2.6565,0,0,0
-0.105,0.051,1.009,-1.9771,1.1985,-2.8473,0,0,0
-0.1042,0.0442,1.0193,-2.8015,1.2443,-2.5267,0,0,0
-0.104,0.0366,1.0178,-2.3206,1.1527,-1.8779,0,0,0
-0.1055,0.0322,1.0188,-2.0153,0.3588,-1.4504,0,0,0
-0.1042,0.0354,1.032,-0.916,0.5573,-0.3664,0,0,0
