ax,ay,az,gx,gy,gz,left_click,right_click
-0.2749,0.0552,0.9539,-6.0076,-6.7099,-7.374,0,0,0
-0.2793,0.0603,0.9578,-5.0,-7.9084,-8.1298,0,0,0
-0.2727,0.0645,0.9551,-6.0229,-9.3282,-8.5878,0,0,0
-0.2698,0.0657,0.9583,-7.6183,-10.6565,-9.0611,0,0,0
-0.2722,0.0703,0.9675,-9.4656,-12.5191,-10.6031,0,0,0
-0.2788,0.0654,0.9778,-10.8931,-13.7252,-13.4198,0,0,0
-0.2708,0.0474,0.9849,-12.5267,-14.6947,-15.084,0,0,0
-0.2637,0.0334,0.9998,-14.0076,-15.5344,-15.2214,0,0,0
-0.249,0.0129,1.0166,-14.2595,-15.2214,-14.5344,0,0,0
-0.2305,0.0044,1.0261,-12.9695,-14.0611,-13.7863,0,0,0
-0.2251,0.0095,1.0273,-11.8702,-12.5496,-13.3893,0,0,0
-0.2285,0.0244,1.0222,-12.0534,-11.2901,-13.1145,0,0,0
-0.2288,0.0352,1.0168,-14.1221,-11.0916,-14.1069,0,0,0
-0.2202,0.0164,1.0186,-14.9084,-10.1832,-15.1603,0,0,0
-0.2195,-0.0239,1.0042,-14.1145,-9.8015,-14.9695,0,0,0
-0.2256,-0.0627,1.0061,-11.6336,-9.8855,-12.5878,0,0,0
-0.2339,-0.0654,1.0137,-7.3206,-10.4122,-9.2748,0,0,0
-0.2278,-0.043,1.0188,-2.9542,-10.771,-6.7099,0,0,0
-0.2104,-0.0115,1.0222,-0.5267,-10.1527,-5.5878,0,0,0
-0.2019,0.0056,1.032,-0.4809,-8.3206,-5.2901,0,0,0
-0.1982,-0.0015,1.0378,-0.9084,-5.6565,-4.4351,0,0,0
-0.2075,-0.0115,1.0266,0.626,-4.0687,-3.6565,0,0,0
-0.2239,-0.019,1.0161,4.1298,-3.9389,-2.9924,0,0,0
-0.2419,-0.0264,1.0032,6.8244,-5.0763,-1.7023,0,0,0
-0.2478,-0.0203,0.9966,7.5191,-6.2901,0.7252,0,0,0
-0.2427,-0.0015,1.0007,5.0763,-6.5649,3.2748,0,0,0
-0.2427,-0.0056,1.0042,-0.1756,-6.8321,7.2595,0,0,0
-0.2405,0.0149,1.0083,-2.3664,-6.7786,9.7786,0,0,0
-0.2244,0.0486,1.0229,-1.7252,-6.5191,7.4351,0,0,0
-0.2217,0.0461,1.0093,1.145,-6.0916,3.5038,0,0,0
-0.2314,0.0156,1.0154,4.8779,-5.7328,2.5649,0,0,0
-0.2227,0.002,1.0183,8.0458,-4.3817,4.4885,0,0,0
-0.2178,0.009,1.0005,10.0076,-3.6489,7.1298,0,0,0
-0.22,0.0083,0.9932,10.1832,-3.1908,8.7405,0,0,0
-0.2178,0.041,0.9973,10.4656,-3.5649,9.0534,0,0,0
-0.2073,0.0562,0.9956,11.6107,-4.145,7.2824,0,0,0
-0.208,0.0596,0.9846,11.771,-5.3817,5.0,0,0,0
-0.2173,0.0481,0.9802,11.9008,-6.6183,3.4809,0,0,0
-0.218,0.0166,0.9797,10.626,-9.7786,3.7939,0,0,0
-0.2097,0.0171,0.9995,10.0611,-12.313,5.2214,0,0,0
-0.1833,0.0559,1.0298,10.8702,-12.1756,4.1527,0,0,0
-0.1582,0.0781,1.0557,11.2214,-10.2366,-0.6489,0,0,0
-0.167,0.0859,1.0635,10.2137,-8.0153,-6.2672,0,0,0
-0.1853,0.0637,1.0532,8.1832,-6.084,-9.3511,0,0,0
-0.1938,0.0349,1.04,5.8931,-5.6565,-10.313,0,0,0
-0.1968,0.019,1.0269,4.3206,-6.084,-9.8626,0,0,0
-0.196,0.011,1.0327,3.9542,-6.4504,-8.7481,0,0,0
-0.1882,0.0369,1.0369,3.313,-6.6718,-8.9237,0,0,0
-0.1763,0.019,1.0437,4.3359,-4.3511,-9.3435,0,0,0
-0.1804,0.0298,1.0288,4.3969,-4.2061,-9.7557,0,0,0
-0.1821,0.0137,1.0281,5.0611,-3.542,-9.2824,0,0,0
-0.1897,0.0105,1.019,6.1679,-3.4275,-8.1908,0,0,0
-0.1877,0.02,1.0271,8.0153,-3.1756,-6.7481,0,0,0
-0.179,0.0361,1.0278,9.9313,-3.0611,-6.4351,0,0,0
-0.1797,0.0432,1.0205,10.4198,-2.5038,-6.458,0,0,0
-0.1951,0.0535,1.0161,9.6641,-2.5267,-6.855,0,0,0
-0.2007,0.05,0.9941,7.4275,-3.1221,-6.0916,0,0,0
-0.198,0.0525,1.0002,6.0,-4.0992,-5.4733,0,0,0
-0.1924,0.0569,0.9963,6.0382,-4.9618,-5.0458,0,0,0
-0.1934,0.0549,1.0,6.2061,-5.1679,-5.4656,0,0,0
-0.1848,0.0603,1.0017,5.6641,-4.6336,-5.374,0,0,0
-0.1831,0.0635,1.0146,3.7481,-3.3893,-4.6412,0,0,0
-0.1738,0.0754,1.0188,2.145,-1.9924,-4.0916,0,0,0
-0.1699,0.05,1.0229,1.1603,-0.3664,-4.145,0,0,0
-0.1917,0.0686,0.9509,0.7634,-1.9618,-3.1985,0,0,0
-0.1895,0.052,1.0042,2.5267,-2.5038,-2.6183,0,0,0
-0.1787,0.062,1.0178,5.0763,-2.1756,-2.3511,0,0,0
-0.1724,0.071,0.9983,5.5267,-2.771,-2.7328,0,0,0
-0.1746,0.0613,1.0007,5.4809,-3.0382,-3.1908,0,0,0
-0.1716,0.0515,1.0002,5.2748,-2.8702,-2.7481,0,0,0
-0.176,0.0488,1.0044,5.4733,-1.9237,-1.5267,0,0,0
-0.1746,0.053,1.0095,6.0458,-0.8702,-0.6107,0,0,0
-0.1677,0.0615,1.0054,6.1985,0.4885,0.2519,0,0,0
-0.1736,0.075,0.9834,6.4427,1.4046,-0.4046,0,0,0
-0.1824,0.074,0.9551,6.8092,0.6183,-1.1603,0,0,0
-0.1982,0.074,0.9636,7.5344,-1.687,-1.5802,0,0,0
-0.196,0.0837,0.9771,7.7252,-4.0229,-1.6641,0,0,0
-0.1726,0.1006,0.9871,7.4885,-4.7481,-2.2748,0,0,0
-0.1689,0.1113,0.9893,7.0992,-4.9924,-3.1985,0,0,0
-0.1826,0.0999,0.9797,6.313,-5.4046,-4.0382,0,0,0
-0.198,0.0859,0.9739,6.0229,-6.1679,-4.0153,0,0,0
-0.2158,0.0945,0.9802,6.0229,-8.2214,-3.1145,0,0,0
-0.2146,0.104,0.9812,6.9542,-10.8397,-3.313,0,0,0
-0.21,0.1077,0.9917,7.1221,-14.0229,-3.8397,0,0,0
-0.2158,0.1042,0.9958,7.8015,-17.5114,-4.4504,0,0,0
-0.2231,0.0964,1.0049,8.2137,-21.458,-4.6336,0,0,0
-0.2329,0.0933,1.0093,9.3053,-26.0763,-4.0229,0,0,0
-0.2383,0.0991,1.0273,9.9237,-30.9008,-3.7786,0,0,0
-0.2371,0.1042,1.0247,10.7328,-36.1679,-4.4275,0,0,0
-0.2261,0.1077,1.0337,9.3511,-42.3817,-5.2672,0,0,0
-0.2029,0.0989,1.0532,9.1069,-46.0687,-4.8015,0,0,0
-0.1536,0.1116,1.0937,9.9008,-46.8321,-5.7099,0,0,0
-0.085,0.1248,1.2039,9.0611,-39.3511,-7.8321,0,0,0
-0.0051,0.144,1.3308,8.0992,-20.4962,-9.7328,0,0,0
0.0645,0.1755,1.4551,5.1832,9.6947,-13.5878,0,0,0
0.1321,0.1558,1.5947,2.5725,50.9084,-17.7328,0,0,0
0.1526,0.1301,1.5449,6.2137,94.3817,-21.1145,0,0,0
0.0928,0.1169,1.4609,10.916,130.7328,-25.0763,0,0,0
-0.0085,0.0947,1.3018,13.9771,156.6336,-28.9542,0,0,0
-0.0874,0.0996,1.0989,15.6183,167.4275,-30.6947,0,0,0
-0.176,0.0693,0.9119,13.3206,165.6717,-28.7176,0,0,0
-0.2551,0.0874,0.7598,6.687,152.3359,-26.8931,0,0,0
-0.325,0.0891,0.6995,-3.1832,131.8931,-25.2901,0,0,0
-0.3828,0.092,0.6584,-12.6794,109.1298,-23.7786,0,0,0
-0.4075,0.0791,0.6687,-19.145,86.6336,-23.1756,0,0,0
-0.4199,0.0515,0.7458,-21.6947,68.6718,-22.0,0,0,0
-0.3975,0.0339,0.8291,-21.0687,57.6336,-19.6565,0,0,0
-0.3716,0.0139,0.8923,-16.4733,53.4122,-15.0305,0,0,0
-0.3772,0.0115,0.9297,-9.313,53.2137,-9.9695,0,0,0
-0.3718,0.0291,0.948,1.6183,55.9313,-5.4198,0,0,0
-0.4006,0.0383,0.9106,12.4656,56.7786,-3.2519,0,0,0
-0.4241,0.0464,0.9023,21.8397,55.7634,-0.5038,0,0,0
-0.4341,0.0869,0.8679,27.6183,53.2672,1.0458,0,0,0
-0.4539,0.1067,0.8157,27.9466,47.5344,2.2519,0,0,0
-0.4915,0.1282,0.7671,24.3053,38.4504,3.7252,0,0,0
-0.5176,0.1423,0.7539,17.4809,27.1527,5.9313,0,0,0
-0.5322,0.1458,0.7141,10.0229,14.1374,7.0458,0,0,0
-0.5474,0.1345,0.7004,1.9695,-0.0534,9.3435,0,0,0
-0.5229,0.1348,0.7234,-5.0916,-12.0992,12.0763,0,0,0
-0.4729,0.1218,0.7686,-10.1069,-21.3435,14.5725,0,0,0
-0.45,0.1023,0.8079,-12.1145,-26.3282,16.1145,0,0,0
-0.4585,0.071,0.812,-12.1069,-30.8779,19.0305,0,0,0
-0.4783,0.0369,0.8081,-12.2366,-36.6641,25.0,0,0,0
-0.4673,0.0083,0.8074,-13.145,-43.1374,33.5038,0,0,0
-0.4524,0.01,0.8247,-13.1756,-49.6718,42.2901,0,0,0
-0.3892,0.0295,0.8713,-12.0458,-54.1527,48.9084,0,0,0
-0.3323,0.0923,0.937,-6.5496,-52.8244,50.1908,0,0,0
-0.3062,0.113,0.9697,-2.9847,-47.8702,46.2366,0,0,0
-0.314,0.0732,1.0105,-3.9618,-40.0916,47.0763,0,0,0
-0.3313,0.0229,1.0022,-6.916,-30.9389,55.7786,0,0,0
-0.3494,0.0215,0.9556,-9.7328,-26.0458,66.6565,0,0,0
-0.3845,0.0269,0.9114,-12.145,-26.0229,75.2443,0,0,0
-0.3984,0.0332,0.8792,-13.0382,-29.9847,82.0916,0,0,0
-0.3691,0.0396,0.9077,-14.4427,-34.9084,88.0687,0,0,0
-0.3025,0.0205,0.9951,-17.0458,-33.8779,94.8397,0,0,0
-0.2444,0.0645,1.0286,-16.5496,-28.229,101.9847,0,0,0
-0.2173,0.0867,1.073,-13.229,-20.0305,104.6183,0,0,0
-0.2134,0.1084,1.0688,-5.6718,-11.5573,103.1069,0,0,0
-0.2336,0.1692,1.0408,4.3893,-6.145,95.4886,0,0,0
-0.2529,0.2214,1.0188,11.8397,-3.0763,83.6183,0,0,0
-0.251,0.2581,1.0232,13.9313,-0.5878,70.6412,0,0,0
-0.2532,0.2976,1.0068,12.2977,2.6947,59.6489,0,0,0
-0.259,0.3286,0.9956,8.2137,4.7099,48.1221,0,0,0
-0.269,0.3188,1.0051,2.4809,7.1145,38.7557,0,0,0
-0.2705,0.311,1.0017,-4.2519,10.6641,32.3206,0,0,0
-0.2856,0.3293,0.998,-9.8321,13.1069,25.626,0,0,0
-0.3003,0.2915,0.9912,-13.7176,14.6336,19.229,0,0,0
-0.3145,0.28,0.9636,-14.5649,14.7023,14.2672,0,0,0
-0.3274,0.248,0.9451,-13.7176,12.2519,10.3435,0,0,0
-0.3379,0.23,0.9277,-9.626,9.0992,8.4962,0,0,0
-0.3359,0.2332,0.9473,-4.5649,5.9008,7.0611,0,0,0
-0.3271,0.2454,0.9541,-2.0382,4.8015,6.4962,0,0,0
-0.3191,0.2656,0.9529,-0.916,4.1603,4.7786,0,0,0
-0.3154,0.2559,0.9714,-1.5954,3.9771,3.2672,0,0,0
-0.3147,0.2573,0.9614,-2.916,4.1145,2.3588,0,0,0
-0.3066,0.2612,0.9817,-2.8473,4.0687,0.6489,0,0,0
-0.2971,0.28,0.9988,-1.1603,5.4885,-3.2901,0,0,0
-0.2766,0.2576,1.0271,-2.1374,8.8626,-6.0687,0,0,0
-0.2727,0.2581,1.0276,-3.5344,12.9084,-6.5115,0,0,0
-0.2842,0.2708,1.0071,-2.3511,16.0458,-10.8015,0,0,0
-0.3135,0.2307,0.9736,-1.5267,17.626,-13.2214,0,0,0
-0.3416,0.2036,0.9524,-0.6489,15.8855,-12.2137,0,0,0
-0.344,0.2039,0.9675,-0.3511,13.9466,-9.916,0,0,0
-0.3213,0.2046,0.9973,-1.8397,14.3664,-7.6336,0,0,0
-0.3044,0.2368,1.012,-0.5649,17.2214,-7.5344,0,0,0
-0.3135,0.2314,1.0125,1.2824,20.3206,-10.0992,0,0,0
-0.3174,0.1956,1.0234,3.7328,23.4122,-10.1221,0,0,0
-0.3179,0.2107,1.0376,8.9084,27.2366,-10.9313,0,0,0
-0.3145,0.1987,1.052,9.4275,33.5038,-10.8855,0,0,0
-0.2849,0.2102,1.0745,7.7099,41.2137,-8.4122,0,0,0
-0.2976,0.241,1.0735,6.2137,51.5038,-8.8931,0,0,0
-0.3342,0.2375,1.0178,5.3359,56.5191,-11.5802,0,0,0
-0.3843,0.2227,0.9329,5.5115,56.3969,-14.1221,0,0,0
-0.4236,0.1782,0.8926,5.1374,51.5038,-12.7786,0,0,0
-0.4026,0.1755,0.9465,7.4504,48.4504,-9.9847,0,0,0
-0.3362,0.1973,1.0244,11.2748,53.2137,-10.6794,0,0,0
-0.3311,0.1885,0.9822,12.7405,59.9084,-11.0076,0,0,0
-0.3916,0.1897,0.915,14.374,62.0076,-10.8244,0,0,0
-0.4148,0.1719,0.8391,16.2443,59.1527,-9.9237,0,0,0
-0.458,0.1362,0.8408,22.1603,56.3664,-6.7099,0,0,0
-0.4622,0.1436,0.8699,29.2748,53.2824,-5.2824,0,0,0
-0.4592,0.1794,0.8628,35.0076,52.3664,-4.9924,0,0,0
-0.4619,0.2114,0.8291,34.8244,50.6336,-5.4351,0,0,0
-0.4993,0.2207,0.7893,30.2824,47.4885,-4.7023,0,0,0
-0.5696,0.2314,0.7578,24.771,40.4427,-1.8321,0,0,0
-0.5862,0.2444,0.7297,18.7252,30.6947,0.2748,0,0,0
-0.5693,0.2288,0.7446,12.6107,22.4046,1.7176,0,0,0
-0.5391,0.2205,0.7673,10.0229,16.5496,4.084,0,0,0
-0.5383,0.2202,0.7693,10.0229,11.4046,5.1985,0,0,0
-0.5398,0.2075,0.7581,9.5344,7.4656,7.4122,0,0,0
-0.5439,0.1987,0.7581,8.5573,2.9008,10.4198,0,0,0
-0.5313,0.1953,0.769,7.5496,-0.4122,13.8626,0,0,0
-0.5249,0.2141,0.7815,5.7863,-3.5802,16.458,0,0,0
-0.51,0.2119,0.8093,3.3664,-4.0992,18.5802,0,0,0
-0.4937,0.2187,0.813,1.4885,-3.5954,20.9771,0,0,0
-0.5151,0.2107,0.7861,1.542,-4.3282,22.0,0,0,0
-0.542,0.2012,0.7568,0.0534,-7.5802,24.5878,0,0,0
-0.5564,0.1863,0.7517,-3.9313,-13.3282,29.8092,0,0,0
-0.5498,0.1931,0.7759,-8.6641,-18.8855,35.1069,0,0,0
-0.502,0.2207,0.8364,-15.626,-20.229,39.4504,0,0,0
-0.4675,0.2432,0.8601,-23.1145,-18.3511,41.7252,0,0,0
-0.4641,0.2556,0.8801,-27.0992,-15.3817,41.5649,0,0,0
-0.4524,0.2666,0.9209,-23.8779,-11.0458,38.771,0,0,0
-0.4331,0.2498,0.958,-17.1985,-4.8702,35.3969,0,0,0
-0.4097,0.2266,1.0088,-10.9389,4.6718,35.3588,0,0,0
-0.4187,0.2122,1.019,-7.2519,13.7481,37.229,0,0,0
-0.4453,0.2375,0.9565,-4.5954,20.9618,40.3282,0,0,0
-0.4683,0.2781,0.9219,-0.4656,23.9237,40.2977,0,0,0
-0.4663,0.3071,0.8896,5.2443,24.771,36.9542,0,0,0
-0.4695,0.3125,0.8821,8.8473,24.8626,33.9008,0,0,0
-0.4695,0.3335,0.8149,10.8931,23.8626,30.4809,0,0,0
-0.4995,0.3533,0.8,10.1221,20.7939,27.4962,0,0,0
-0.512,0.3855,0.7776,8.0,15.8397,23.9389,0,0,0
-0.5034,0.4253,0.7559,6.626,10.313,18.8473,0,0,0
-0.5012,0.4443,0.7673,5.145,5.3282,12.0458,0,0,0
-0.4929,0.446,0.7742,2.0916,1.5725,5.916,0,0,0
-0.4961,0.4375,0.7668,-1.4962,-1.7328,0.9466,0,0,0
-0.5071,0.4243,0.7515,-5.2748,-6.7786,-3.4046,0,0,0
-0.4998,0.3921,0.7759,-8.6336,-10.8702,-4.5496,0,0,0
-0.481,0.3767,0.7866,-11.0,-12.9618,-4.5344,0,0,0
-0.4609,0.3679,0.7871,-10.1145,-15.4733,-5.1603,0,0,0
-0.4678,0.3755,0.7607,-7.313,-18.4122,-6.7634,0,0,0
-0.4868,0.374,0.7246,-4.374,-23.4275,-8.5496,0,0,0
-0.5005,0.3794,0.6567,-1.374,-32.8092,-10.6031,0,0,0
-0.5205,0.3938,0.5991,1.2977,-46.1298,-13.4275,0,0,0
-0.5254,0.4065,0.5601,3.0687,-62.4733,-17.1985,0,0,0
-0.5159,0.4207,0.5432,3.7863,-81.8702,-22.4427,0,0,0
-0.4861,0.4414,0.5842,1.542,-98.5191,-28.7634,0,0,0
-0.4949,0.4373,0.5725,-3.4198,-116.2137,-36.1145,0,0,0
-0.5125,0.4832,0.5708,-3.1679,-135.4046,-48.4733,0,0,0
-0.387,0.4937,0.6218,0.8931,-150.7863,-67.7863,0,0,0
-0.2813,0.4075,0.7756,-1.8779,-164.9618,-80.8855,0,0,0
-0.2454,0.3037,0.8579,-11.4275,-162.6107,-74.7863,0,0,0
-0.2124,0.3118,0.8574,-22.8702,-158.1679,-60.1756,0,0,0
-0.2222,0.3967,0.8315,-31.313,-158.2748,-55.3588,0,0,0
-0.2373,0.4136,0.7759,-35.1069,-162.4275,-62.7481,0,0,0
-0.2346,0.4238,0.7527,-31.5344,-173.626,-76.3206,0,0,0
-0.1616,0.3916,0.8489,-26.1679,-181.3588,-90.4046,0,0,0
-0.0615,0.303,0.9541,-21.7557,-180.084,-96.2824,0,0,0
0.0083,0.1501,1.105,-25.4427,-166.9008,-86.5954,0,0,0
0.0398,0.1179,1.1941,-32.7557,-144.5191,-67.0382,0,0,0
0.0481,0.1218,1.2222,-39.145,-122.1832,-48.0992,0,0,0
0.043,0.2197,1.2007,-38.8779,-103.2748,-42.9313,0,0,0
0.0322,0.3088,1.1892,-32.6947,-91.4733,-52.1908,0,0,0
0.0686,0.3828,1.1912,-22.5573,-82.7939,-73.9313,0,0,0
0.1042,0.3135,1.2324,-17.1908,-69.7634,-91.6489,0,0,0
0.1057,0.2417,1.229,-12.8168,-56.5038,-98.855,0,0,0
0.0884,0.1768,1.2324,-15.0229,-43.6412,-97.1069,0,0,0
0.0823,0.1421,1.2261,-19.2672,-31.1221,-91.0992,0,0,0
0.0781,0.1113,1.1931,-22.0687,-20.3511,-82.1832,0,0,0
0.0698,0.1135,1.155,-24.4122,-14.2061,-76.7557,0,0,0
0.0435,0.115,1.1279,-24.6107,-10.8473,-72.626,0,0,0
0.0317,0.136,1.0935,-24.0229,-10.374,-72.1527,0,0,0
0.0356,0.1558,1.1211,-22.8168,-10.6183,-73.8855,0,0,0
0.0513,0.0908,1.1899,-23.6183,-5.9084,-73.084,0,0,0
0.0627,0.0483,1.2234,-21.4656,4.5725,-66.4504,0,0,0
0.0505,-0.0034,1.1965,-16.7099,13.6412,-56.3435,0,0,0
0.01,0.0022,1.1606,-7.855,18.7023,-45.1527,0,0,0
0.0244,0.134,1.1213,-3.5802,26.2901,-44.3435,0,0,0
0.0427,0.1533,1.0549,-3.542,29.8321,-49.916,0,0,0
-0.0278,0.1003,1.053,-6.6565,27.2443,-50.0992,0,0,0
-0.0789,0.0732,1.0596,-13.5267,27.4427,-45.9924,0,0,0
-0.0454,0.0225,1.0728,-28.916,31.8473,-29.2748,0,0,0
-0.0544,0.0383,1.0593,-21.5191,28.8626,-38.6031,0,0,0
-0.0461,0.0366,1.0664,-30.2977,35.0916,-23.1298,0,0,0
-0.0542,0.0232,1.0835,-27.2061,37.3969,-20.5191,0,0,0
-0.0657,-0.0024,1.0818,-21.7557,40.0076,-18.0534,0,0,0
-0.0715,0.0015,1.0723,-14.0458,42.9771,-15.1832,0,0,0
-0.0955,0.0015,1.0447,-7.4198,43.916,-12.7405,0,0,0
-0.1194,0.0007,1.0208,-3.2137,43.8855,-9.2595,0,0,0
-0.1372,0.0039,0.9929,-0.9924,43.145,-5.5038,0,0,0
-0.144,-0.0132,0.9712,-1.4046,41.4122,-0.3817,0,0,0
-0.1602,-0.0249,0.9668,-3.916,38.7786,5.8473,0,0,0
-0.1748,-0.043,0.9678,-6.3511,36.8092,14.3969,0,0,0
-0.168,-0.0413,0.9619,-6.8015,34.7099,23.229,0,0,0
-0.1663,-0.0291,0.9971,-4.771,33.5954,29.2901,0,0,0
-0.1533,0.0161,1.0276,0.4122,34.7481,32.1069,0,0,0
-0.1392,0.0229,1.0432,5.5649,37.229,32.2672,0,0,0
-0.1511,0.0217,1.0254,9.771,40.4733,34.0992,0,0,0
-0.1699,0.0315,1.0161,11.9771,42.5344,38.2443,0,0,0
-0.1794,0.0732,1.0234,12.8779,43.8244,40.2443,0,0,0
-0.1721,0.0808,1.0356,10.3664,46.0229,40.9618,0,0,0
-0.177,0.0471,1.0352,3.3817,49.7023,46.0076,0,0,0
-0.1914,0.0188,0.9968,-6.5954,53.1908,57.5649,0,0,0
-0.2104,0.0078,0.9731,-15.9237,54.9618,71.1221,0,0,0
-0.2214,0.0505,0.9314,-21.3359,52.0916,79.9771,0,0,0
-0.2314,0.0808,0.9424,-22.626,46.8931,83.0305,0,0,0
-0.2214,0.1677,0.9592,-16.0,41.6489,77.9084,0,0,0
-0.2063,0.1992,0.9902,-9.1908,39.2901,66.3359,0,0,0
-0.2227,0.1582,1.0005,-6.7863,38.9695,58.3817,0,0,0
-0.2458,0.0708,0.9846,-7.4427,40.3206,62.2977,0,0,0
-0.2595,0.064,0.9709,-10.8168,42.0153,72.9466,0,0,0
-0.2634,0.0918,0.9546,-16.0229,41.7176,82.229,0,0,0
-0.2734,0.1511,0.9138,-18.5878,38.4504,85.6183,0,0,0
-0.2932,0.1938,0.8955,-19.6412,32.9237,81.7557,0,0,0
-0.303,0.2048,0.8826,-20.7405,26.1527,76.7634,0,0,0
-0.3059,0.2073,0.8882,-20.9466,19.2214,71.771,0,0,0
-0.2915,0.1997,0.9229,-18.7176,14.6031,67.1069,0,0,0
-0.271,0.1951,0.9785,-13.4809,14.145,62.4275,0,0,0
-0.2583,0.2505,0.9954,-6.0687,16.2901,54.8855,0,0,0
-0.2751,0.2561,0.9924,-1.4351,18.6489,45.5115,0,0,0
-0.3032,0.2622,0.9771,-0.5496,19.374,38.3053,0,0,0
-0.3257,0.241,0.9336,-2.8855,18.0611,34.8702,0,0,0
-0.3389,0.2332,0.9143,-7.0458,14.7023,33.6947,0,0,0
-0.3406,0.2522,0.9094,-9.8473,9.7099,32.1679,0,0,0
-0.325,0.3223,0.9194,-7.3359,5.687,23.0229,0,0,0
-0.3088,0.3503,0.9194,-3.8397,1.9084,7.1908,0,0,0
-0.3179,0.303,0.9226,-1.458,-1.916,-5.313,0,0,0
-0.333,0.231,0.9211,-0.2519,-5.2977,-8.3817,0,0,0
-0.3296,0.2012,0.9172,-1.313,-7.7023,-6.2748,0,0,0
-0.3059,0.1765,0.9614,-2.4809,-8.3053,-3.0916,0,0,0
-0.2837,0.1658,0.9771,-2.8931,-5.4351,0.2748,0,0,0
-0.2788,0.1792,0.9656,-1.3969,-2.626,1.7939,0,0,0
-0.2998,0.2029,0.9521,1.8168,-2.6183,0.5038,0,0,0
-0.3054,0.2297,0.9507,6.8244,-3.8626,-4.313,0,0,0
-0.2898,0.2505,0.9524,13.3511,-6.2748,-11.8931,0,0,0
-0.2896,0.2544,0.9436,17.4427,-7.9924,-20.4275,0,0,0
-0.2959,0.2236,0.9324,16.4504,-9.2214,-24.0076,0,0,0
-0.3096,0.2214,0.9075,13.4122,-11.9313,-23.0153,0,0,0
-0.3247,0.2578,0.874,10.2672,-17.7405,-24.4809,0,0,0
-0.3359,0.2769,0.8301,8.5725,-27.4351,-32.0,0,0,0
-0.344,0.2368,0.8367,6.5191,-37.4427,-38.9084,0,0,0
-0.3157,0.166,0.8816,4.5573,-45.1832,-39.9389,0,0,0
-0.2668,0.1089,0.95,3.3206,-45.4962,-33.1603,0,0,0
-0.217,0.125,1.0054,2.687,-40.7481,-25.5344,0,0,0
-0.2097,0.1331,1.0186,0.6183,-33.9313,-19.9313,0,0,0
-0.2356,0.147,1.0015,-0.8244,-29.8931,-16.0,0,0,0
-0.2542,0.1421,0.9871,-3.0916,-28.0305,-13.0382,0,0,0
-0.2498,0.1296,0.9753,-4.855,-28.2443,-9.2595,0,0,0
-0.2383,0.156,0.9805,-6.1298,-28.4427,-6.9466,0,0,0
-0.22,0.1758,0.9763,-6.4656,-28.0,-8.5191,0,0,0
-0.23,0.155,0.9602,-7.1756,-29.0305,-9.5115,0,0,0
-0.2551,0.1443,0.9355,-8.0763,-32.8092,-8.6565,0,0,0
-0.2681,0.1404,0.8977,-10.2443,-38.9466,-6.9771,0,0,0
-0.2622,0.1406,0.8621,-12.4656,-48.2824,-6.1145,0,0,0
-0.2676,0.1145,0.8574,-15.229,-59.3893,-5.0382,0,0,0
-0.2515,0.0916,0.8569,-16.0611,-71.7099,-2.0305,0,0,0
-0.1985,0.0889,0.9307,-16.8244,-78.771,1.542,0,0,0
-0.1284,0.1099,0.9758,-16.5649,-78.4733,3.8321,0,0,0
-0.0977,0.1116,1.0134,-16.4962,-75.771,4.0305,0,0,0
-0.0906,0.0964,1.0476,-14.4427,-71.397,5.0916,0,0,0
-0.0732,0.0977,1.1033,-12.5802,-63.084,6.0992,0,0,0
-0.053,0.1255,1.1111,-8.9924,-54.6107,5.6183,0,0,0
-0.0525,0.1243,1.1167,-6.3817,-47.6641,3.9466,0,0,0
-0.0596,0.1372,1.1143,-3.9313,-40.7252,2.6641,0,0,0
-0.0381,0.1467,1.157,-3.6031,-30.9542,0.8321,0,0,0
-0.0105,0.1577,1.1843,-4.4198,-19.084,-1.0229,0,0,0
-0.0171,0.1572,1.1777,-5.855,-7.6641,-3.2061,0,0,0
-0.0415,0.135,1.1406,-7.0916,0.9237,-4.1832,0,0,0
-0.0728,0.1235,1.1121,-7.6489,5.9466,-4.0,0,0,0
-0.0874,0.1211,1.0874,-7.687,7.374,-3.7176,0,0,0
-0.0813,0.106,1.0789,-7.4275,9.4198,-4.0611,0,0,0
-0.0803,0.1121,1.0637,-7.0992,10.6947,-4.2595,0,0,0
-0.0908,0.0981,1.0505,-6.0763,10.6183,-4.4122,0,0,0
-0.0874,0.0984,1.0764,-4.8168,10.9924,-3.1145,0,0,0
-0.0652,0.1357,1.1301,-1.5954,16.4198,-4.6489,0,0,0
-0.0486,0.1382,1.1392,2.0916,23.5344,-8.374,0,0,0
-0.0762,0.1204,1.1133,4.6031,29.5802,-10.4275,0,0,0
-0.114,0.1062,1.0776,6.1374,32.9237,-8.6412,0,0,0
-0.1328,0.1082,1.0234,5.8931,32.6412,-6.5115,0,0,0
-0.1433,0.1321,0.9998,5.8702,28.7176,-5.916,0,0,0
-0.1467,0.1448,1.0149,4.3893,25.542,-6.9695,0,0,0
-0.1357,0.1357,1.041,1.7099,25.7786,-6.4046,0,0,0
-0.1282,0.1533,1.043,-0.2061,27.458,-5.8244,0,0,0
-0.1367,0.1594,1.0518,-1.0611,28.5954,-6.5802,0,0,0
-0.144,0.1577,1.0464,-0.4046,30.1527,-8.1756,0,0,0
-0.1528,0.1389,1.0237,0.3282,30.0534,-9.5038,0,0,0
-0.1765,0.1179,0.9929,0.8168,27.916,-8.0763,0,0,0
-0.1938,0.115,0.969,0.8855,23.8931,-5.8931,0,0,0
-0.2039,0.1177,0.9333,-0.1527,18.4962,-3.5954,0,0,0
-0.2024,0.1252,0.9202,-1.542,11.9542,-2.2748,0,0,0
-0.1982,0.1208,0.916,-3.5038,6.1069,-1.2137,0,0,0
-0.1841,0.113,0.9307,-5.0534,1.9466,0.3206,0,0,0
-0.1765,0.1208,0.9558,-4.313,-1.1221,1.9695,0,0,0
-0.1621,0.1401,1.0012,-2.2214,-1.9618,1.3359,0,0,0
-0.1514,0.1348,1.0117,0.458,-0.3206,-0.7863,0,0,0
-0.1582,0.1211,1.0017,2.4046,1.4427,-0.3969,0,0,0
-0.1731,0.1309,0.998,3.7786,2.0916,0.6794,0,0,0
-0.1736,0.1423,0.9722,3.6412,2.3511,0.6718,0,0,0
-0.1814,0.144,0.9585,2.3206,0.3053,0.3969,0,0,0
-0.1882,0.1445,0.9622,1.313,-1.7634,0.3969,0,0,0
-0.1763,0.158,0.9707,-0.0611,-2.8397,0.2748,0,0,0
-0.1633,0.156,0.9907,-0.9847,-2.8779,-0.2519,0,0,0
-0.1614,0.1521,0.9875,-1.4962,-2.5954,-0.7939,0,0,0
-0.1628,0.1482,0.9983,-1.4962,-1.9008,-1.6412,0,0,0
-0.1675,0.1418,0.9885,-1.0458,-1.5038,-2.3817,0,0,0
-0.1704,0.1301,0.9919,-0.6336,-1.4427,-2.3817,0,0,0
-0.178,0.1292,0.9788,-0.7099,-2.1603,-1.1908,0,0,0
-0.1729,0.1479,0.9902,-0.6183,-2.9847,-1.1603,0,0,0
-0.1709,0.1497,0.9888,-1.1832,-3.6183,-2.0992,0,0,0
-0.1692,0.1355,0.9907,-2.2595,-4.0,-2.1527,0,0,0
-0.1641,0.1306,0.9988,-2.6336,-3.5267,-1.8244,0,0,0
-0.1584,0.1289,1.0173,-2.4885,-2.4427,-1.4427,0,0,0
-0.1658,0.1279,1.0076,-0.6641,-1.8092,-1.4427,0,0,0
-0.1755,0.1326,1.0073,1.0534,-2.3206,-1.626,0,0,0
-0.1775,0.1416,1.0034,1.3053,-2.8015,-2.4504,0,0,0
-0.1763,0.1438,1.0027,0.5649,-3.2443,-1.8397,0,0,0
-0.1672,0.1682,1.0098,-0.1221,-3.4885,-2.9847,0,0,0
-0.1611,0.1665,1.0112,-1.0382,-3.1069,-5.4122,0,0,0
-0.1672,0.1409,1.0076,-1.5038,-2.8855,-6.8473,0,0,0
-0.176,0.1182,0.9956,-1.0763,-3.7099,-5.4733,0,0,0
-0.1787,0.1372,1.0027,0.2443,-4.6107,-4.6107,0,0,0
-0.1685,0.1758,0.9866,3.2824,-6.1832,-8.1374,0,0,0
-0.175,0.1785,0.9985,5.0611,-8.1069,-13.3435,0,0,0
-0.1853,0.1758,0.9844,6.5649,-10.0611,-16.8015,0,0,0
-0.1702,0.2522,1.0198,11.2366,-11.1069,-23.9542,0,0,0
-0.1462,0.2878,1.0305,17.5038,-12.3206,-38.8397,0,0,0
-0.1484,0.3374,1.0283,28.6641,-13.5725,-58.4962,0,0,0
-0.1641,0.2866,1.0127,38.5878,-16.5267,-76.7557,0,0,0
-0.1824,0.259,1.0078,45.9313,-20.6565,-88.3511,0,0,0
-0.168,0.3528,1.0413,53.0916,-23.9847,-99.4428,0,0,0
-0.135,0.3594,1.0425,50.9313,-26.7634,-115.0534,0,0,0
-0.1362,0.1975,1.0203,34.7557,-26.6794,-115.4886,0,0,0
-0.1951,0.0391,1.0449,14.6718,-23.084,-93.0,0,0,0
-0.1963,-0.0107,1.0273,-4.5038,-19.3511,-61.1374,0,0,0
-0.1584,0.073,1.012,-19.8397,-16.9771,-40.1374,0,0,0
-0.1038,0.189,1.0203,-26.7863,-15.3893,-36.4198,0,0,0
-0.073,0.1975,1.0374,-26.4733,-12.6031,-43.9008,0,0,0
-0.0945,0.0618,1.054,-20.8702,-8.0382,-44.5802,0,0,0
-0.1238,-0.0193,1.0745,-12.4198,-2.3282,-34.1069,0,0,0
-0.1216,-0.0166,1.0515,-1.4275,3.3817,-21.5191,0,0,0
-0.1162,0.0659,1.0337,8.9695,6.458,-16.1374,0,0,0
-0.1294,0.1299,1.0181,16.6718,6.855,-17.4885,0,0,0
-0.1494,0.1355,0.9878,18.1756,5.8092,-18.7939,0,0,0
-0.179,0.1274,0.9731,14.8626,3.5267,-16.313,0,0,0
-0.1672,0.1333,0.9717,8.8092,0.7557,-11.374,0,0,0
-0.1663,0.1331,0.9707,1.4351,-1.0,-6.5725,0,0,0
-0.1418,0.1802,0.9956,-2.3817,-1.3053,-4.8244,0,0,0
-0.1292,0.1809,1.0112,-4.6718,-0.4427,-6.7863,0,0,0
-0.1523,0.1455,1.0159,-5.2137,1.1603,-7.0611,0,0,0
-0.1719,0.0981,1.0078,-4.8397,2.7481,-2.9313,0,0,0
-0.1707,0.0906,0.9858,-3.8321,3.3435,2.5954,0,0,0
-0.1624,0.1089,0.9897,-2.6107,3.1527,6.2901,0,0,0
-0.1514,0.1404,0.9858,-0.9237,2.3511,7.1985,0,0,0
-0.1433,0.178,0.9973,1.7176,2.1527,5.0305,0,0,0
-0.1458,0.2065,0.9958,3.3664,1.9389,0.6489,0,0,0
-0.1562,0.21,1.002,3.5802,1.313,-4.0916,0,0,0
-0.1572,0.1858,1.0071,2.2595,1.8702,-6.5725,0,0,0
-0.166,0.1489,0.9954,-0.2443,1.8626,-5.2214,0,0,0
-0.1716,0.1399,0.9951,-2.7023,1.1832,-2.374,0,0,0
-0.1638,0.1641,0.9966,-3.374,0.4046,-1.5115,0,0,0
-0.1575,0.1667,0.9971,-3.0382,0.2214,-3.5267,0,0,0
-0.1624,0.1484,1.0066,-1.9771,0.3282,-3.9313,0,0,0
-0.1604,0.1362,1.0088,0.3053,1.1679,-2.7786,0,0,0
-0.158,0.1528,1.0156,3.0382,1.8702,-1.9313,0,0,0
-0.1484,0.197,1.0085,7.0611,2.1985,-3.8855,0,0,0
-0.1545,0.21,1.0178,7.9084,2.3511,-8.2137,0,0,0
-0.1721,0.1804,1.0139,5.229,3.1603,-9.3893,0,0,0
-0.176,0.1589,0.9937,1.2519,4.4046,-6.1908,0,0,0
-0.1885,0.1584,0.9712,-3.0916,4.084,-3.0534,0,0,0
-0.1843,0.1541,0.9854,-6.5649,2.7481,-0.9313,0,0,0
-0.1777,0.1375,0.9954,-9.9466,2.3359,1.3206,0,0,0
-0.1616,0.1292,0.9993,-11.8244,3.5725,4.6336,0,0,0
-0.157,0.1392,1.0132,-11.2824,3.9542,7.0687,0,0,0
-0.156,0.1704,1.0093,-8.3817,3.9389,5.542,0,0,0
-0.1543,0.1658,1.0078,-4.6412,3.6718,2.0763,0,0,0
-0.1692,0.1318,1.0288,-3.0305,4.145,1.6412,0,0,0
-0.165,0.1084,1.0403,-4.6718,6.9084,5.5954,0,0,0
-0.1604,0.103,1.032,-8.8855,10.3588,11.9389,0,0,0
-0.1614,0.0952,1.04,-14.2977,14.0076,17.8702,0,0,0
-0.165,0.082,1.02,-19.7939,16.9924,24.5038,0,0,0
-0.1887,0.0266,1.0073,-25.5267,18.5114,33.8092,0,0,0
-0.1948,-0.041,1.0393,-33.3664,21.7023,48.9084,0,0,0
-0.1743,-0.1079,1.0608,-42.0611,28.4427,71.6794,0,0,0
-0.1445,-0.0747,1.0374,-46.2748,34.3588,94.0153,0,0,0
-0.1309,-0.0266,0.9827,-46.8473,37.4122,107.7939,0,0,0
-0.1453,-0.0229,0.925,-44.7328,35.3969,116.9008,0,0,0
-0.1731,-0.0776,0.875,-39.1908,28.374,126.4886,0,0,0
-0.2224,-0.0781,0.8599,-29.7557,14.3053,138.3206,0,0,0
-0.231,-0.0273,0.8523,-24.2977,-0.3664,148.2061,0,0,0
-0.1882,0.0935,0.8621,-22.7405,-13.1985,152.7557,0,0,0
-0.146,0.248,0.8853,-26.1985,-23.5344,145.2901,0,0,0
-0.1252,0.3054,0.9473,-33.0153,-30.1527,128.8092,0,0,0
-0.116,0.314,1.0134,-39.5802,-30.8473,110.9847,0,0,0
-0.1035,0.2998,1.1169,-45.6641,-25.6565,94.1756,0,0,0
-0.0769,0.2405,1.1802,-48.5954,-13.229,82.7863,0,0,0
-0.0657,0.2185,1.1926,-46.1298,0.4046,73.6794,0,0,0
-0.092,0.1963,1.1538,-39.8855,10.4046,66.3359,0,0,0
-0.1487,0.1643,1.0959,-31.771,15.4733,59.4198,0,0,0
-0.1851,0.1597,1.0598,-22.5344,16.4427,52.0763,0,0,0
-0.1865,0.1472,1.0115,-16.313,14.0916,45.3664,0,0,0
-0.1794,0.135,0.9885,-13.8931,12.3893,41.9924,0,0,0
-0.1704,0.116,0.9946,-16.5344,11.9847,41.458,0,0,0
-0.1648,0.1218,0.9827,-22.687,12.4733,43.0763,0,0,0
-0.1702,0.1587,0.9751,-29.084,11.7939,42.229,0,0,0
-0.1877,0.1833,0.9626,-31.9008,7.7099,37.6718,0,0,0
-0.2031,0.2107,0.9634,-31.542,2.5267,26.7557,0,0,0
-0.1909,0.1582,0.9771,-25.8321,-1.626,15.1908,0,0,0
-0.1743,0.1174,0.9951,-18.1985,-3.7481,10.8626,0,0,0
-0.1709,0.0908,1.0002,-12.0305,-4.0305,10.1603,0,0,0
-0.175,0.0876,1.0054,-6.6794,-4.8779,9.5954,0,0,0
-0.1638,0.0964,1.0227,-2.7328,-5.3893,8.3969,0,0,0
-0.1597,0.1179,1.019,-1.8397,-5.5496,8.8168,0,0,0
-0.1611,0.1426,1.0,-4.3969,-6.374,7.6489,0,0,0
-0.165,0.158,1.0017,-6.9771,-8.1069,4.2672,0,0,0
-0.1587,0.1436,1.0073,-7.6183,-9.313,1.1603,0,0,0
-0.1494,0.1233,1.031,-6.771,-9.6947,-0.4275,0,0,0
-0.1372,0.113,1.0469,-4.7634,-8.1908,-1.1374,0,0,0
-0.1362,0.1165,1.0376,-2.4427,-6.5344,-1.7939,0,0,0
-0.1458,0.1216,1.0229,0.1527,-6.6412,-3.6565,0,0,0
-0.1626,0.124,1.0125,1.4656,-7.8931,-5.0992,0,0,0
-0.1621,0.123,0.9885,1.1908,-11.5496,-6.2748,0,0,0
-0.1487,0.1384,0.9954,0.1679,-14.5954,-8.145,0,0,0
-0.1108,0.1616,1.0073,0.1985,-16.4962,-12.0305,0,0,0
-0.1106,0.1626,1.0271,1.9542,-15.4809,-18.5802,0,0,0
-0.1138,0.1489,1.0039,3.7863,-14.7099,-24.9008,0,0,0
-0.1257,0.1694,0.9868,7.9695,-16.9008,-32.3664,0,0,0
-0.1433,0.1904,0.9612,15.9084,-21.6412,-42.6412,0,0,0
-0.1443,0.2034,0.9368,22.3969,-28.2443,-55.374,0,0,0
-0.1392,0.1794,0.9485,27.2901,-34.0916,-65.0458,0,0,0
-0.1165,0.1245,0.9832,29.4427,-37.1603,-68.6031,0,0,0
-0.1016,0.1272,1.0022,30.1679,-37.4504,-67.374,0,0,0
-0.0891,0.1609,1.0186,29.5496,-37.0,-67.8092,0,0,0
-0.0808,0.2344,1.02,29.1985,-36.3282,-73.6947,0,0,0
-0.0725,0.1416,1.0427,25.0992,-34.6718,-78.2061,0,0,0
-0.072,0.0635,1.0388,22.1832,-32.2824,-71.8244,0,0,0
-0.0764,0.1321,1.0427,23.5802,-30.7023,-65.1756,0,0,0
-0.0618,0.2102,1.0354,25.4198,-29.6107,-68.7786,0,0,0
-0.033,0.2273,1.0483,27.1756,-28.2595,-79.0382,0,0,0
-0.0337,0.1536,1.0715,28.1679,-24.8473,-84.6183,0,0,0
-0.0483,0.0989,1.061,26.7786,-21.145,-80.374,0,0,0
-0.0466,0.1616,1.093,25.4275,-16.6107,-74.5725,0,0,0
-0.0251,0.2209,1.0706,21.9924,-11.687,-77.6947,0,0,0
-0.0205,0.2744,1.0486,18.855,-9.2366,-86.5878,0,0,0
-0.0422,0.231,1.0398,13.8473,-9.1832,-94.8779,0,0,0
-0.0745,0.0955,1.0308,7.5573,-9.9237,-91.2901,0,0,0
-0.0845,0.041,1.0708,-0.4046,-8.8168,-77.6794,0,0,0
-0.0483,0.1177,1.0945,-7.0763,-4.0,-67.4504,0,0,0
-0.0259,0.1218,1.0715,-16.1221,0.4656,-63.3053,0,0,0
-0.0469,0.1086,1.0474,-22.687,3.0229,-60.3282,0,0,0
-0.0796,0.0725,1.0315,-24.5878,3.0,-56.9237,0,0,0
-0.082,0.0225,1.063,-21.5344,2.6947,-51.5802,0,0,0
-0.0579,0.0757,1.0906,-11.084,4.1069,-49.8473,0,0,0
-0.0378,0.0869,1.1167,-1.6641,6.9313,-53.4198,0,0,0
-0.0454,0.1016,1.0867,6.0229,9.0763,-57.9847,0,0,0
-0.0796,0.0435,1.0552,9.9008,10.1527,-57.0,0,0,0
-0.0974,0.0027,1.0205,9.0687,10.4504,-50.5878,0,0,0
-0.1082,-0.0247,0.9973,6.8397,9.2061,-40.4198,0,0,0
-0.1152,-0.0015,0.9983,4.1603,7.5649,-30.771,0,0,0
-0.115,0.022,0.9937,0.9389,4.9542,-24.5649,0,0,0
-0.1038,0.0593,1.0037,-1.3206,2.8626,-22.0153,0,0,0
-0.0715,0.1323,1.0479,0.5191,3.0611,-24.4351,0,0,0
-0.054,0.1541,1.0608,3.2977,4.9389,-32.4275,0,0,0
-0.0779,0.0708,1.0483,4.6336,6.8626,-35.6718,0,0,0
-0.1265,-0.0015,1.0383,5.9847,8.5725,-29.687,0,0,0
-0.1465,-0.0239,1.0215,7.0534,8.3893,-19.1756,0,0,0
-0.1348,0.0054,1.0186,6.6031,8.6718,-10.9084,0,0,0
-0.1104,0.0249,1.0239,6.0611,9.7939,-5.7634,0,0,0
-0.1104,0.0164,1.0049,6.3588,10.6718,-1.229,0,0,0
-0.1313,-0.0032,0.9856,7.084,10.1374,5.3206,0,0,0
-0.1313,0.002,0.981,8.0229,8.4122,12.4962,0,0,0
-0.106,0.0615,1.0066,9.2977,7.5344,16.5344,0,0,0
-0.0823,0.0828,1.0476,7.5954,10.4656,17.229,0,0,0
-0.0852,0.0938,1.0591,2.8855,15.1756,19.8397,0,0,0
-0.1008,0.0999,1.0569,-2.8473,20.1069,23.7176,0,0,0
-0.1257,0.0903,1.0222,-7.5038,22.2672,27.5649,0,0,0
-0.1365,0.074,1.0176,-9.3435,22.6641,30.0763,0,0,0
-0.1321,0.0325,1.0291,-9.5038,23.4198,33.4885,0,0,0
-0.1272,-0.0276,1.0371,-9.7939,26.5038,41.0305,0,0,0
-0.1343,-0.0779,1.0359,-11.8168,31.5649,55.5649,0,0,0
-0.1333,-0.0696,1.0164,-15.0153,35.229,73.4351,0,0,0
-0.1296,0.009,0.9766,-16.145,36.5496,84.8702,0,0,0
-0.1243,0.0278,0.9399,-16.2366,34.8779,88.6336,0,0,0
-0.1619,-0.0337,0.907,-15.8855,28.9618,94.9466,0,0,0
-0.2065,-0.0469,0.895,-13.6565,19.3817,107.0,0,0,0
-0.1851,-0.0066,0.9021,-13.2595,10.6489,116.6947,0,0,0
-0.1584,0.0542,0.916,-13.626,3.8473,122.4886,0,0,0
-0.1458,0.1379,0.9207,-13.8168,-3.1069,121.7557,0,0,0
-0.1477,0.1934,0.9346,-16.3664,-9.1145,115.2214,0,0,0
-0.1531,0.2244,0.9453,-20.0382,-14.5878,105.4657,0,0,0
-0.1375,0.1938,0.9905,-23.0687,-17.2748,95.4809,0,0,0
-0.1265,0.1863,1.0061,-23.9466,-17.4122,88.6183,0,0,0
-0.113,0.2056,1.0305,-21.771,-16.0687,80.8626,0,0,0
-0.104,0.2173,1.0474,-18.1985,-13.3435,72.0916,0,0,0
-0.1121,0.2234,1.0403,-13.8702,-11.1908,62.0916,0,0,0
-0.1235,0.2175,1.0154,-10.7023,-10.0382,53.1603,0,0,0
-0.137,0.1929,1.0205,-10.2137,-9.9084,47.9313,0,0,0
-0.127,0.1279,1.0232,-13.687,-8.5573,49.0916,0,0,0
-0.1094,0.1118,1.0056,-18.4962,-6.0611,54.6947,0,0,0
-0.1021,0.1453,0.9858,-23.1756,-5.6489,57.1069,0,0,0
-0.1116,0.1824,0.9861,-26.3511,-7.4656,53.8397,0,0,0
-0.126,0.2002,0.9736,-25.8015,-11.4275,47.0382,0,0,0
-0.1262,0.2083,0.9751,-21.4351,-16.2443,39.4504,0,0,0
-0.1057,0.1875,0.99,-16.8015,-19.4046,32.6565,0,0,0
-0.0925,0.1582,0.9875,-14.1603,-20.5878,30.0153,0,0,0
-0.095,0.1375,0.9846,-14.9695,-22.9084,31.9008,0,0,0
-0.1064,0.166,0.957,-18.9008,-27.0153,34.3053,0,0,0
-0.1099,0.2139,0.9465,-23.5267,-33.5344,31.7634,0,0,0
-0.1003,0.2476,0.9687,-27.1298,-39.313,23.7634,0,0,0
-0.0774,0.2429,0.9878,-28.0992,-43.145,14.0687,0,0,0
-0.0505,0.2065,1.0308,-27.7328,-44.6336,5.6107,0,0,0
-0.0342,0.1597,1.0471,-26.5267,-43.0763,1.7863,0,0,0
-0.0247,0.1357,1.0474,-27.0305,-40.9084,1.6489,0,0,0
-0.0464,0.1594,1.0208,-28.7863,-42.0534,1.4962,0,0,0
-0.0681,0.1887,1.0271,-29.3053,-42.9389,-6.5573,0,0,0
-0.0474,0.1655,1.0051,-28.0458,-49.8779,-12.458,0,0,0
-0.0315,0.1567,1.0193,-24.8626,-52.2061,-15.8473,0,0,0
-0.0007,0.1577,1.0034,-26.0305,-55.1832,-18.0916,0,0,0
0.0098,0.1313,1.0005,-28.1221,-58.5725,-21.1298,0,0,0
0.022,0.0901,1.0393,-32.1832,-59.9924,-21.3664,0,0,0
0.0613,0.0437,1.1077,-35.0382,-56.0458,-18.3969,0,0,0
0.1108,0.0212,1.1582,-37.229,-45.5802,-12.6412,0,0,0
0.1316,0.0464,1.1538,-37.2214,-34.2366,-9.1069,0,0,0
0.1172,0.0625,1.1208,-35.8321,-25.9771,-10.1603,0,0,0
0.093,0.0132,1.104,-32.4351,-21.2672,-12.1145,0,0,0
0.0811,-0.0251,1.073,-26.7252,-19.3053,-11.6718,0,0,0
0.0818,-0.0537,1.0671,-21.1527,-19.229,-9.5725,0,0,0
0.0864,-0.0491,1.0535,-16.7328,-18.8092,-6.8092,0,0,0
0.0852,-0.0435,1.0293,-13.9237,-19.1603,-5.1298,0,0,0
0.084,-0.0571,1.0266,-11.9389,-19.3359,-3.7023,0,0,0
0.0879,-0.0515,1.0295,-10.0763,-18.6718,-1.8244,0,0,0
0.1118,-0.0388,1.0701,-6.0916,-16.4046,-0.8397,0,0,0
0.1289,-0.0344,1.1003,-2.2824,-10.8473,-0.4962,0,0,0
0.1272,-0.0239,1.0847,-0.2824,-5.2443,-1.5954,0,0,0
0.1101,-0.0889,1.0869,1.1679,-0.229,-1.3435,0,0,0
0.1064,-0.1528,1.0935,5.6718,4.8855,4.855,0,0,0
0.114,-0.1892,1.0896,10.7863,9.9542,12.9542,0,0,0
0.113,-0.198,1.0779,17.0229,15.5802,22.542,0,0,0
0.0942,-0.124,1.0391,21.4198,17.7328,27.4046,0,0,0
0.0703,-0.0579,0.998,23.5038,16.9924,26.7328,0,0,0
0.0518,-0.0437,0.9905,23.0382,14.0534,24.6107,0,0,0
0.0454,-0.1223,1.0308,21.8931,12.7481,28.6641,0,0,0
0.0493,-0.1262,1.0518,19.9313,13.9695,39.0763,0,0,0
0.0828,-0.0977,1.062,21.0153,18.0458,49.0458,0,0,0
0.0908,-0.0151,1.05,24.2137,21.6565,51.1374,0,0,0
0.0737,0.031,1.0217,28.4275,22.5878,47.0,0,0,0
0.0464,0.0496,1.0183,32.1145,21.5038,42.5878,0,0,0
0.041,0.0222,1.0352,32.229,21.4427,43.3053,0,0,0
0.0447,0.0605,1.0344,30.2748,22.771,47.6107,0,0,0
0.0464,0.1143,1.0264,26.4351,23.8244,48.2519,0,0,0
0.0417,0.1699,1.0,23.1756,23.3817,44.1069,0,0,0
0.0168,0.2263,0.9673,19.9771,19.9466,34.7863,0,0,0
0.0085,0.217,0.9387,16.2137,14.5878,25.9466,0,0,0
0.0071,0.1794,0.9475,11.7023,8.9771,21.7786,0,0,0
0.0159,0.1504,0.9666,8.2214,4.8702,21.4733,0,0,0
0.0195,0.177,0.9778,4.0763,0.916,19.1908,0,0,0
0.0327,0.1921,0.9897,-0.9542,-1.7557,14.6412,0,0,0
0.0369,0.1907,0.9902,-5.7481,-4.0,9.6336,0,0,0
0.0393,0.1721,0.9963,-8.2595,-7.0611,5.5954,0,0,0
0.0471,0.1726,1.0022,-8.1298,-9.4733,0.6107,0,0,0
0.0632,0.136,1.0332,-5.9084,-9.5115,-3.9924,0,0,0
0.0725,0.1123,1.0703,-1.5878,-8.0382,-6.1603,0,0,0
0.0808,0.0798,1.1125,1.5649,-3.0458,-6.2901,0,0,0
0.0969,0.1047,1.1101,2.1679,2.5344,-5.9924,0,0,0
0.0884,0.1233,1.0923,1.8321,5.8626,-7.5344,0,0,0
0.0652,0.1365,1.0737,0.5344,7.5573,-10.1374,0,0,0
0.0547,0.1377,1.0742,-0.8931,7.5649,-13.5649,0,0,0
0.0703,0.1638,1.1118,0.9313,9.5496,-18.7023,0,0,0
0.0952,0.218,1.1401,5.1069,15.1145,-29.1832,0,0,0
0.114,0.1831,1.1526,11.0687,22.3282,-41.1221,0,0,0
0.1116,0.1926,1.1763,17.8626,30.9542,-49.2595,0,0,0
0.0757,0.2559,1.1355,24.0229,39.5573,-62.3053,0,0,0
0.0479,0.2627,1.053,25.9771,40.7634,-78.6641,0,0,0
-0.01,0.2891,1.0791,25.9924,39.8931,-96.4809,0,0,0
0.0098,0.2283,1.0022,28.5191,38.7863,-112.4046,0,0,0
-0.0149,0.1992,0.9446,34.5038,31.0153,-121.1985,0,0,0
-0.0542,0.1606,0.9243,39.8702,21.542,-126.3893,0,0,0
-0.0649,0.0742,0.9939,45.8244,13.3893,-125.6718,0,0,0
-0.0486,0.1602,1.0413,58.2824,10.4809,-125.2595,0,0,0
-0.0117,0.1719,1.0422,64.1679,10.0916,-131.5191,0,0,0
-0.0286,0.0266,1.0439,62.6565,10.5802,-124.7023,0,0,0
-0.0869,-0.0864,1.0417,59.0611,12.1298,-99.7634,0,0,0
-0.1079,-0.0583,1.0574,49.5267,14.5115,-68.8244,0,0,0
-0.0613,0.2876,1.0862,42.7557,18.3893,-61.1832,0,0,0
0.01,0.3806,1.0266,30.8702,21.6565,-78.7099,0,0,0
-0.0144,0.249,0.9954,16.4962,23.6565,-89.5344,0,0,0
-0.1223,0.1074,0.9578,5.6718,20.8473,-80.5191,0,0,0
-0.1702,0.0823,0.9373,-0.9237,15.5878,-63.1985,0,0,0
-0.1494,0.1016,0.8994,-7.5496,7.9771,-51.6183,0,0,0
-0.1389,0.0671,0.9094,-14.0382,1.0687,-42.4656,0,0,0
-0.1421,0.0659,0.9202,-20.8092,-4.5267,-32.4351,0,0,0
-0.1257,0.134,0.9392,-24.6565,-8.6031,-25.0534,0,0,0
-0.0986,0.1765,0.9424,-29.4962,-13.3282,-26.2061,0,0,0
-0.1062,0.137,0.9424,-34.0458,-17.3206,-28.084,0,0,0
-0.1184,0.1191,0.9443,-35.5954,-20.9695,-26.0458,0,0,0
-0.1111,0.0989,0.9504,-35.3206,-24.7405,-24.3893,0,0,0
-0.1008,0.052,0.9619,-36.0611,-27.0992,-20.7099,0,0,0
-0.1021,-0.0012,0.9705,-38.4885,-27.5114,-12.3206,0,0,0
-0.106,-0.0083,0.9529,-41.7939,-28.313,-0.3053,0,0,0
-0.092,0.0867,0.9434,-42.5267,-31.7481,5.1298,0,0,0
-0.0737,0.1687,0.9329,-42.5573,-36.2214,-2.0382,0,0,0
-0.0645,0.137,0.9495,-43.9924,-40.8702,-11.687,0,0,0
-0.0708,0.0576,0.9563,-46.2061,-44.4122,-13.8626,0,0,0
-0.0737,0.0054,0.968,-49.8779,-46.7176,-8.2672,0,0,0
-0.0615,-0.0166,0.9709,-54.0687,-48.5344,-0.3588,0,0,0
-0.0422,-0.0308,0.9973,-58.0305,-48.0763,7.7176,0,0,0
-0.0359,-0.0686,0.9795,-61.3206,-47.0382,16.458,0,0,0
-0.0408,-0.1296,0.9626,-65.1374,-46.0611,28.4198,0,0,0
-0.041,-0.1614,0.9473,-64.8626,-47.916,43.0763,0,0,0
-0.0344,-0.0742,0.9441,-57.9313,-52.8702,51.6641,0,0,0
-0.0081,-0.0046,0.9473,-49.8473,-59.2061,47.5954,0,0,0
0.0247,-0.0403,0.9739,-44.2672,-62.5725,42.2824,0,0,0
0.0217,-0.1721,0.9932,-39.0687,-63.5573,48.2672,0,0,0
0.0283,-0.2346,1.001,-34.5954,-62.5878,65.0916,0,0,0
0.043,-0.22,0.968,-32.0229,-62.1221,84.229,0,0,0
0.0647,-0.1375,0.9644,-32.0,-63.687,95.2137,0,0,0
0.0898,-0.0273,0.9734,-35.3511,-65.6412,95.5802,0,0,0
0.1284,0.03,1.0039,-40.458,-66.2061,87.7786,0,0,0
0.1721,-0.0139,1.0273,-45.8931,-64.2061,80.4962,0,0,0
0.1873,-0.0979,1.0403,-48.2137,-60.0687,79.0229,0,0,0
0.1853,-0.1443,1.0598,-46.5954,-57.2214,81.1221,0,0,0
0.2207,-0.2122,1.1812,-33.3053,-41.1298,73.7328,0,0,0
0.23,-0.2085,1.1917,-11.8931,-36.0458,78.7481,0,0,0
0.24,-0.1233,1.2004,12.9313,-23.4504,79.2443,0,0,0
0.2595,-0.0183,1.1528,28.1603,-14.9542,70.7481,0,0,0
0.2368,0.0164,1.1316,35.8855,-8.7328,58.0992,0,0,0
0.2104,0.0322,1.1289,33.2214,-3.5573,46.9618,0,0,0
0.2183,-0.0588,1.145,26.9237,2.3359,42.8931,0,0,0
0.2251,-0.1145,1.1677,21.0458,11.7328,46.9924,0,0,0
0.2312,-0.0757,1.1389,18.0153,20.6336,49.9924,0,0,0
0.2173,-0.0288,1.1143,18.1756,26.2137,46.9008,0,0,0
0.178,-0.071,1.084,21.626,28.8397,43.1145,0,0,0
0.1477,-0.1045,1.0796,31.7328,30.3664,43.8015,0,0,0
0.1431,-0.0557,1.0574,42.2824,28.6107,43.2137,0,0,0
0.1479,-0.0039,1.0662,48.6336,27.626,38.9618,0,0,0
0.1543,0.0239,1.063,51.0,29.458,34.5267,0,0,0
0.1472,0.052,1.0779,48.229,31.9771,30.4427,0,0,0
0.1521,-0.0215,1.1353,45.4504,37.7099,30.4351,0,0,0
0.1704,-0.0193,1.1558,47.1527,47.4656,33.8321,0,0,0
0.1753,0.0088,1.1506,50.0,56.5878,34.8321,0,0,0
0.1433,0.0791,1.1125,51.1374,63.3359,31.6947,0,0,0
0.062,0.1394,1.0366,49.2977,62.3206,22.4885,0,0,0
0.012,0.1433,0.9841,45.1374,55.9542,15.1374,0,0,0
0.0107,0.1487,0.9788,38.3282,48.0,10.1679,0,0,0
0.0156,0.1343,0.9949,30.2519,43.7786,5.9237,0,0,0
0.0386,0.0662,1.0247,25.4962,42.4351,4.6794,0,0,0
0.0442,0.0149,1.0676,25.2672,43.3893,7.5954,0,0,0
0.0269,0.0042,1.071,28.5954,46.7786,11.4427,0,0,0
0.0144,0.0417,1.0549,32.8855,47.4198,11.8855,0,0,0
-0.0056,0.1018,1.0171,36.1145,46.1374,8.1069,0,0,0
-0.0166,0.1445,1.0256,38.9389,44.4962,0.8015,0,0,0
-0.0063,0.1301,1.0161,41.7405,43.4046,-5.7405,0,0,0
-0.0093,0.124,0.9939,42.4351,44.0763,-9.2061,0,0,0
-0.04,0.1536,0.9749,41.9542,42.4427,-12.8092,0,0,0
-0.0679,0.1953,0.9834,41.3817,39.4275,-18.1908,0,0,0
-0.0571,0.2358,1.0005,43.2901,37.3817,-26.7557,0,0,0
-0.0461,0.2305,1.0068,43.1679,36.4427,-36.1221,0,0,0
-0.0532,0.2332,1.0173,43.0763,35.7328,-43.4962,0,0,0
-0.0696,0.2871,1.0168,45.7252,34.2214,-52.4427,0,0,0
-0.073,0.3433,1.0103,49.4198,33.2137,-67.2672,0,0,0
-0.0947,0.3245,0.9739,49.8168,28.7252,-85.397,0,0,0
-0.1189,0.1655,0.9641,48.5954,23.8779,-89.6794,0,0,0
-0.1467,0.0901,0.9714,49.0153,20.6794,-77.9618,0,0,0
-0.1448,0.2224,0.9861,51.2748,18.4885,-69.4351,0,0,0
-0.1182,0.3406,0.9495,52.7786,16.229,-78.2901,0,0,0
-0.1277,0.3562,0.895,50.3359,10.4198,-94.0687,0,0,0
-0.1926,0.2446,0.8362,48.6794,-0.4504,-100.4657,0,0,0
-0.2524,0.0837,0.8279,43.3359,-13.0992,-88.4962,0,0,0
-0.2505,-0.0007,0.8755,34.7176,-22.3893,-61.3893,0,0,0
-0.1912,0.1262,0.9053,25.374,-26.7405,-37.145,0,0,0
-0.1047,0.3511,0.9326,15.3511,-26.9008,-34.2977,0,0,0
-0.0813,0.4019,0.9172,3.916,-26.7557,-47.9237,0,0,0
-0.1326,0.3015,0.8796,-6.5038,-30.2214,-56.8244,0,0,0
-0.1965,0.1895,0.8416,-11.4885,-39.4962,-53.5878,0,0,0
-0.2063,0.1494,0.8201,-12.8015,-51.0992,-44.0458,0,0,0
-0.1655,0.2212,0.8159,-11.2824,-63.5954,-40.2672,0,0,0
-0.1218,0.2329,0.8403,-11.2824,-75.313,-43.2595,0,0,0
-0.1055,0.2122,0.8706,-14.4504,-83.0534,-44.5038,0,0,0
-0.0808,0.1494,0.948,-21.0076,-86.4504,-39.6565,0,0,0
-0.0332,0.134,1.0239,-30.9008,-81.313,-28.3435,0,0,0
0.0154,0.1787,1.0559,-42.6718,-72.4504,-19.2748,0,0,0
0.0232,0.1921,1.0461,-54.4198,-64.9771,-14.6183,0,0,0
0.0032,0.1521,1.0239,-63.6412,-60.1221,-11.6183,0,0,0
-0.0239,0.0476,1.0085,-68.2748,-57.9542,-2.9924,0,0,0
-0.0249,-0.0015,1.0051,-68.084,-57.4275,9.0458,0,0,0
-0.002,0.0081,0.9758,-63.8397,-58.5573,19.0458,0,0,0
0.0217,0.0037,0.9973,-59.1069,-59.3511,25.1603,0,0,0
0.0444,-0.0579,1.0139,-54.145,-57.458,33.3664,0,0,0
0.0659,-0.123,1.0342,-46.542,-52.7557,46.4656,0,0,0
0.0869,-0.1077,1.0552,-40.3588,-46.3817,60.7939,0,0,0
0.0979,-0.022,1.0442,-34.2519,-41.4046,68.1298,0,0,0
0.1006,0.0635,1.0183,-32.3817,-40.4504,65.9847,0,0,0
0.1042,0.0823,1.0386,-32.7786,-39.7405,60.0611,0,0,0
0.1226,0.0625,1.0693,-32.1832,-37.855,55.4962,0,0,0
0.1577,-0.0149,1.1274,-28.4122,-31.1679,55.9313,0,0,0
0.1816,-0.0757,1.167,-19.5954,-20.6489,61.4046,0,0,0
0.1851,-0.0649,1.166,-5.0687,-9.3282,63.9924,0,0,0
0.1663,-0.0293,1.1357,13.2061,-1.5725,62.2595,0,0,0
0.1565,0.0559,1.084,32.2214,2.9466,54.687,0,0,0
0.1375,0.1597,1.0835,44.9313,2.1908,42.1374,0,0,0
0.145,0.2451,1.1277,50.9084,3.6718,26.0382,0,0,0
0.1697,0.1499,1.2161,51.8244,11.3435,15.9771,0,0,0
0.1826,0.1238,1.231,52.4809,24.6794,15.5954,0,0,0
0.1807,0.2288,1.2034,49.1527,38.5649,11.687,0,0,0
0.1545,0.2932,1.1787,46.6031,49.0076,1.0153,0,0,0
0.1292,0.3647,1.115,45.0992,53.4198,-18.9466,0,0,0
0.0818,0.2998,1.075,43.3969,53.0992,-37.7634,0,0,0
0.0476,0.186,1.052,42.2061,52.229,-44.6718,0,0,0
0.0339,0.1702,1.0417,45.2061,50.2977,-42.5573,0,0,0
0.0396,0.1897,1.0281,42.5344,49.1603,-40.4046,0,0,0
0.0198,0.2078,0.9924,32.5649,48.2366,-38.3893,0,0,0
-0.0151,0.1736,0.9714,18.8473,44.0611,-34.5344,0,0,0
-0.0269,0.1414,0.9902,5.2901,40.0611,-24.0305,0,0,0
-0.0095,0.1277,1.051,-6.9542,40.4962,-12.229,0,0,0
0.0359,0.1772,1.0874,-12.4122,44.313,-4.7557,0,0,0
0.0464,0.2117,1.0884,-11.626,50.0687,-6.8321,0,0,0
0.0159,0.1733,1.0625,-7.1374,53.5878,-11.4809,0,0,0
-0.0432,0.1194,1.0166,0.0153,52.6107,-10.8626,0,0,0
-0.0833,0.1013,0.9897,7.5878,48.5725,-6.1603,0,0,0
-0.0933,0.1162,0.9592,13.7939,43.5573,-1.5649,0,0,0
-0.0791,0.1267,0.9421,18.1908,37.8626,0.9237,0,0,0
-0.0854,0.1484,0.9263,18.0534,32.5725,3.2519,0,0,0
-0.1045,0.1333,0.915,14.374,26.9466,8.7634,0,0,0
-0.1174,0.1582,0.9072,6.0992,20.9313,15.3435,0,0,0
-0.1152,0.2217,0.8965,-2.6031,15.2366,17.6718,0,0,0
-0.1201,0.2454,0.8684,-10.8321,6.8244,14.7634,0,0,0
-0.1409,0.2202,0.845,-17.1603,-3.0992,11.4733,0,0,0
-0.1521,0.1873,0.8303,-20.7252,-14.3053,11.229,0,0,0
-0.1553,0.1538,0.8367,-22.9847,-26.3359,13.2595,0,0,0
-0.1343,0.1135,0.8792,-25.6794,-36.0992,17.4962,0,0,0
-0.0901,0.0618,0.95,-30.2443,-39.4809,26.1832,0,0,0
-0.0439,0.0674,0.9897,-35.4275,-37.9084,36.7634,0,0,0
-0.0173,0.1025,1.009,-40.7481,-34.8397,44.5496,0,0,0
-0.022,0.1462,1.0083,-43.1908,-33.1832,45.3893,0,0,0
-0.0222,0.1631,1.0249,-41.3588,-32.8168,40.4809,0,0,0
-0.0117,0.1597,1.0388,-34.9847,-33.1069,32.8168,0,0,0
0.0,0.0955,1.0662,-28.4504,-31.3206,30.0,0,0,0
0.0203,0.0415,1.0876,-22.9924,-26.4733,34.0076,0,0,0
0.0398,0.0469,1.1018,-18.8626,-20.6336,40.6641,0,0,0
0.0391,0.0569,1.0894,-17.771,-14.1908,46.1145,0,0,0
0.0374,0.0974,1.061,-17.4198,-8.8092,50.8092,0,0,0
0.0366,0.1489,1.041,-17.626,-5.5267,49.4885,0,0,0
0.0315,0.1802,1.0164,-17.2366,-4.6718,42.8168,0,0,0
0.0339,0.1746,1.0103,-15.8015,-4.3969,35.458,0,0,0
0.0225,0.1772,0.9795,-15.1221,-4.8321,30.0305,0,0,0
0.0088,0.2378,1.0015,-13.4198,-6.9771,23.3588,0,0,0
0.0315,0.2131,0.9509,-9.5573,-6.7328,14.1527,0,0,0
-0.0115,0.2422,0.9529,-4.4962,-12.2519,6.2977,0,0,0
-0.0281,0.2556,0.9495,-2.4656,-17.9313,-2.7786,0,0,0
-0.0044,0.2732,0.9846,-1.0992,-24.0305,-13.2519,0,0,0
0.0239,0.2412,1.0439,0.145,-24.9771,-24.4275,0,0,0
0.0542,0.2068,1.0398,-2.5802,-23.9389,-33.9008,0,0,0
0.0466,0.1606,1.0413,-1.4733,-23.3817,-34.6947,0,0,0
0.0422,0.2258,1.042,2.0916,-23.5649,-40.5496,0,0,0
0.0442,0.2234,0.9866,5.0611,-28.4504,-52.7328,0,0,0
0.0344,0.1814,0.9829,8.5954,-35.1145,-62.8779,0,0,0
0.0327,0.1196,1.0386,11.8779,-38.9466,-66.313,0,0,0
0.0645,0.1812,1.0745,15.8321,-36.8473,-68.8244,0,0,0
0.1125,0.1553,1.0608,15.4427,-33.4275,-72.8626,0,0,0
0.0957,0.0735,1.0979,13.5267,-30.855,-71.4733,0,0,0
0.0779,-0.0471,1.1489,11.7252,-23.5344,-57.3817,0,0,0
0.0901,-0.0461,1.2019,9.2748,-12.3053,-37.7099,0,0,0
0.1367,0.1128,1.2617,6.5649,1.1527,-26.3206,0,0,0
0.1858,0.311,1.262,4.8168,17.3053,-36.7328,0,0,0
0.187,0.2131,1.2212,3.9695,31.6718,-52.771,0,0,0
0.1118,0.0186,1.1829,11.3359,41.1069,-53.2672,0,0,0
0.03,-0.0776,1.1384,25.5038,46.8321,-38.0534,0,0,0
0.0056,-0.0408,1.0847,33.7176,48.7176,-22.626,0,0,0
0.0203,0.0176,1.0476,35.6489,49.4504,-11.2443,0,0,0
0.0288,0.1091,1.0122,32.3282,48.542,-5.2824,0,0,0
0.0142,0.1716,0.991,21.9237,47.8931,-4.0076,0,0,0
-0.011,0.1731,0.9573,9.1145,44.9389,-3.1527,0,0,0
-0.0334,0.1287,0.9529,-2.7252,40.9847,0.6794,0,0,0
-0.0481,0.1089,0.9365,-10.7786,35.5344,6.3588,0,0,0
-0.0493,0.0718,0.9727,-16.0687,29.7557,13.2366,0,0,0
-0.0435,0.0603,0.9832,-19.5649,27.4809,20.4351,0,0,0
-0.0349,0.0652,0.9661,-22.0687,26.1145,27.7786,0,0,0
-0.0488,0.0391,0.9551,-25.2748,23.9008,35.5573,0,0,0
-0.0737,0.0151,0.9365,-25.4962,19.7252,44.7176,0,0,0
-0.0852,0.0383,0.8997,-23.8397,12.5725,52.6336,0,0,0
-0.0815,0.0801,0.9268,-23.1908,4.229,55.9313,0,0,0
-0.0549,0.095,0.9673,-24.6107,0.2519,57.1756,0,0,0
-0.0269,0.1282,0.9709,-24.8931,-1.626,58.1221,0,0,0
-0.0259,0.1597,0.9561,-24.1374,-3.458,56.3893,0,0,0
-0.0403,0.1921,0.9512,-23.2366,-6.7634,49.9542,0,0,0
-0.0432,0.2043,0.9456,-20.2672,-10.2595,41.2595,0,0,0
-0.0435,0.197,0.9324,-17.1985,-14.3969,32.626,0,0,0
-0.0479,0.2021,0.9036,-15.2901,-19.7023,26.2366,0,0,0
-0.0574,0.2134,0.8896,-14.5267,-26.1832,20.374,0,0,0
-0.0562,0.2393,0.8701,-14.6565,-33.3435,13.1679,0,0,0
-0.0481,0.2327,0.8699,-17.0305,-42.3053,4.0611,0,0,0
-0.0442,0.1875,0.8755,-20.084,-51.0534,-1.5344,0,0,0
-0.0347,0.166,0.8647,-22.5725,-59.1985,-3.3206,0,0,0
-0.0205,0.1741,0.8943,-25.4122,-67.8321,-4.9237,0,0,0
0.0127,0.1946,0.9709,-27.5038,-68.3893,-12.6107,0,0,0
0.0884,0.1987,1.0083,-28.0382,-67.916,-16.1145,0,0,0
0.0935,0.2197,1.0642,-26.1069,-64.5573,-22.6794,0,0,0
0.1108,0.1758,1.1011,-25.9084,-59.8626,-29.1679,0,0,0
0.1458,0.1865,1.1848,-22.8244,-50.7786,-34.3053,0,0,0
0.1809,0.249,1.2168,-17.4504,-41.4427,-45.5267,0,0,0
0.2036,0.1689,1.2207,-16.9084,-29.1603,-57.7099,0,0,0
0.1792,0.0994,1.1741,-17.2824,-18.6183,-59.0611,0,0,0
0.1401,0.0173,1.1401,-13.2137,-12.6107,-54.5725,0,0,0
0.116,0.0251,1.179,-10.8015,-8.1145,-51.7252,0,0,0
0.1541,0.0566,1.2073,-1.2595,0.542,-54.5573,0,0,0
0.1868,0.0247,1.1956,11.2824,10.1374,-58.3282,0,0,0
0.165,-0.0186,1.1802,25.9237,19.084,-58.313,0,0,0
0.1172,-0.0305,1.1567,41.4351,26.1069,-52.771,0,0,0
0.1018,-0.0171,1.1299,51.5649,30.7252,-46.3435,0,0,0
0.0876,-0.0305,1.0979,54.2672,34.5954,-36.8855,0,0,0
0.0725,-0.0203,1.0818,51.3053,37.1908,-23.6718,0,0,0
0.0537,0.033,1.0791,41.3893,39.4962,-11.2137,0,0,0
0.0737,0.0911,1.0852,27.4962,43.145,-1.1985,0,0,0
0.0833,0.1655,1.0574,15.2366,46.4046,1.1908,0,0,0
0.0718,0.1643,1.0344,6.687,47.1298,-0.7634,0,0,0
0.04,0.0845,1.0518,3.4962,46.916,-1.2366,0,0,0
0.0239,0.0073,1.0459,5.7634,47.9313,5.0076,0,0,0
0.0122,-0.0132,1.0322,10.1069,48.6489,13.7557,0,0,0
0.0012,-0.0002,1.0361,11.7634,49.2061,23.0763,0,0,0
0.0037,0.0259,1.0415,9.8092,50.8397,32.3435,0,0,0
0.0127,0.0686,1.0325,3.9771,53.9237,39.6641,0,0,0
0.0032,0.0952,0.9817,-2.771,54.8702,44.8397,0,0,0
-0.043,0.1045,0.9412,-6.8626,51.3053,47.4809,0,0,0
-0.0864,0.1257,0.9021,-6.3053,42.9008,47.8931,0,0,0
-0.1133,0.1414,0.8821,-2.4275,31.9695,44.8015,0,0,0
-0.1099,0.1309,0.8821,1.8626,21.2672,41.3053,0,0,0
-0.0925,0.1321,0.8989,6.1832,13.7023,39.4427,0,0,0
-0.0825,0.1445,0.8945,7.9466,7.0382,38.2443,0,0,0
-0.0867,0.1709,0.8965,5.6565,1.2214,36.9313,0,0,0
-0.1035,0.1946,0.8777,-0.2137,-6.1527,34.458,0,0,0
-0.1147,0.2095,0.8608,-8.5573,-15.7786,32.8168,0,0,0
-0.1262,0.1855,0.843,-21.1756,-27.3588,33.1832,0,0,0
-0.1223,0.1902,0.8306,-34.374,-39.9924,35.5954,0,0,0
-0.0908,0.2095,0.8408,-43.458,-52.687,33.5573,0,0,0
-0.0576,0.1736,0.8865,-48.7023,-62.4809,29.5878,0,0,0
-0.0051,0.1206,0.979,-51.6794,-65.6718,28.2061,0,0,0
0.052,0.1011,1.0393,-53.6336,-60.9237,29.5954,0,0,0
0.0854,0.1108,1.0735,-55.8397,-53.3588,30.5038,0,0,0
0.1052,0.2161,1.2507,-53.1756,-40.9084,24.9313,0,0,0
0.1274,0.0786,1.0937,-40.7634,-31.2443,18.2137,0,0,0
0.05,0.1084,1.1206,-22.2519,-27.6718,16.0305,0,0,0
0.0583,0.1433,1.0488,-7.771,-23.3435,11.2824,0,0,0
0.0596,0.167,1.0315,0.8931,-24.7099,4.5267,0,0,0
0.0557,0.1797,1.011,2.1908,-26.229,-1.0611,0,0,0
0.0586,0.1758,0.9832,-2.0305,-29.6107,-3.9084,0,0,0
0.0579,0.1958,0.967,-9.1374,-33.5802,-8.1221,0,0,0
0.0667,0.186,0.9719,-17.2901,-38.1145,-12.9542,0,0,0
0.075,0.167,0.9607,-23.8397,-42.8473,-16.0153,0,0,0
0.0806,0.1807,0.9773,-26.8855,-47.7099,-19.7863,0,0,0
0.105,0.1907,1.0076,-26.084,-50.9313,-27.2977,0,0,0
0.1418,0.228,1.0635,-20.6794,-51.2519,-39.5954,0,0,0
0.1663,0.1404,1.1367,-16.7176,-47.1298,-50.5038,0,0,0
0.2058,-0.0366,1.2053,-8.9008,-35.1069,-47.6412,0,0,0
0.2214,-0.0408,1.2209,-1.0687,-21.8321,-39.0992,0,0,0
0.2407,0.0796,1.2251,1.5191,-7.8779,-37.1298,0,0,0
0.2219,0.2139,1.1702,3.5954,0.9847,-49.2214,0,0,0
0.2051,0.1624,1.1121,3.0763,5.145,-64.5954,0,0,0
0.1533,0.0212,1.085,2.4885,5.5038,-67.9542,0,0,0
0.1067,-0.0649,1.094,5.2061,7.2595,-59.2519,0,0,0
0.1233,-0.1133,1.0723,11.8473,9.145,-46.8779,0,0,0
0.1333,-0.0598,1.0801,20.0763,11.2214,-34.6107,0,0,0
0.1443,0.0476,1.0806,23.8092,15.4962,-30.8168,0,0,0
0.1428,0.0923,1.0789,21.8779,19.3282,-33.0687,0,0,0
0.1335,0.0352,1.1008,18.7786,23.3664,-30.9313,0,0,0
0.1213,0.02,1.1333,17.5267,30.5878,-23.4046,0,0,0
0.1301,0.0378,1.1218,16.4809,38.7634,-17.1756,0,0,0
0.1272,0.0613,1.0874,13.6641,44.0687,-13.6031,0,0,0
0.0962,0.0789,1.061,12.8244,46.3053,-11.9237,0,0,0
0.075,0.0759,1.0503,13.6412,47.3664,-11.2214,0,0,0
0.0588,0.0417,1.0503,14.3511,47.6107,-9.2214,0,0,0
0.0552,-0.002,1.0703,16.3588,49.7557,-2.5267,0,0,0
0.0598,0.0322,1.0479,20.3664,53.5496,3.2672,0,0,0
0.0647,0.0679,1.0369,24.6489,54.7405,4.1145,0,0,0
0.0347,0.0647,1.0137,27.6718,54.229,3.5954,0,0,0
0.0146,0.0466,1.0168,28.3588,54.0992,7.0153,0,0,0
-0.0017,0.0793,0.9851,26.4351,53.5344,12.4733,0,0,0
-0.02,0.1057,0.9487,21.2366,49.6565,16.1908,0,0,0
-0.0388,0.1145,0.9351,15.0076,44.2061,18.4275,0,0,0
-0.0515,0.1101,0.9456,7.626,39.1985,21.0,0,0,0
-0.0403,0.0955,0.9783,0.2443,36.8244,26.6947,0,0,0
-0.0173,0.1118,0.9971,-6.5496,37.1832,33.0305,0,0,0
-0.0325,0.1335,0.9634,-12.5267,36.3588,37.1985,0,0,0
-0.0764,0.1475,0.9138,-16.2901,30.0,37.9924,0,0,0
-0.1118,0.1453,0.8748,-18.7634,19.8473,37.6718,0,0,0
-0.125,0.1277,0.8535,-22.4885,7.6565,38.5115,0,0,0
-0.1108,0.1155,0.8801,-28.1145,-3.1603,42.0458,0,0,0
-0.0916,0.1265,0.9041,-37.0687,-10.0916,46.7328,0,0,0
-0.0691,0.1868,0.8928,-45.855,-16.229,48.3664,0,0,0
-0.0613,0.2134,0.8965,-52.9924,-22.8855,43.4885,0,0,0
-0.0623,0.2095,0.9287,-55.374,-28.7863,34.5496,0,0,0
-0.0491,0.168,0.9641,-53.687,-33.1908,27.084,0,0,0
-0.0088,0.127,1.0068,-49.7176,-33.1527,22.3969,0,0,0
0.0129,0.1165,1.0166,-44.4122,-31.2137,19.0687,0,0,0
0.012,0.1357,1.0237,-39.6641,-29.2595,15.1908,0,0,0
-0.0032,0.1448,1.0056,-35.8855,-28.6336,9.1985,0,0,0
-0.0076,0.1604,0.9973,-31.6718,-29.8092,1.8779,0,0,0
0.0066,0.1489,0.9946,-27.374,-31.7863,-7.313,0,0,0
0.0215,0.0884,1.0139,-22.5344,-33.4809,-12.374,0,0,0
0.0293,0.0779,1.0212,-16.5114,-34.7176,-14.771,0,0,0
0.041,0.1179,1.0371,-10.8931,-35.4885,-19.5267,0,0,0
0.0696,0.1902,1.0554,-5.6641,-34.7176,-30.7634,0,0,0
0.1003,0.2373,1.1116,-0.8931,-29.7939,-46.771,0,0,0
0.1206,0.1863,1.1318,2.084,-22.9466,-61.5954,0,0,0
0.1084,0.1069,1.1155,6.4809,-16.6489,-69.3893,0,0,0
0.084,0.0076,1.1331,10.9924,-10.9084,-69.0763,0,0,0
0.0701,-0.0313,1.1165,17.2672,-5.4046,-60.6183,0,0,0
0.0645,0.0508,1.0815,21.1298,-2.1145,-55.4809,0,0,0
0.0598,0.0818,1.0493,21.3206,-2.0076,-55.6794,0,0,0
0.0396,0.0601,1.0378,19.6794,-3.6641,-55.1145,0,0,0
0.0366,0.0422,1.0437,18.771,-5.2443,-50.229,0,0,0
0.0518,0.0459,1.0542,16.5573,-5.8092,-45.8015,0,0,0
0.0671,0.002,1.0808,14.1145,-3.2366,-38.0687,0,0,0
0.0735,0.0151,1.1045,11.8931,1.2519,-29.3359,0,0,0
0.0801,0.0994,1.1179,10.2672,7.1679,-26.2824,0,0,0
0.0813,0.0967,1.1321,6.3053,12.7023,-27.9389,0,0,0
0.0635,0.0452,1.1189,5.9008,17.9466,-27.5038,0,0,0
0.0459,-0.0063,1.0964,9.5267,20.9847,-22.7481,0,0,0
0.0254,-0.012,1.061,14.4351,21.0687,-16.7252,0,0,0
0.0139,-0.0125,1.0469,17.2519,19.5573,-11.2748,0,0,0
0.0103,0.0154,1.032,18.2824,18.1221,-6.5496,0,0,0
0.0154,0.0291,1.0339,14.8473,18.0382,-1.6107,0,0,0
0.0146,0.0334,1.0283,8.2061,18.9618,4.771,0,0,0
0.0105,0.0198,1.0256,0.8931,19.7405,12.5267,0,0,0
0.0012,0.0288,1.0203,-3.6718,19.4198,19.3588,0,0,0
0.0046,0.0146,1.0327,-5.1756,20.0076,23.6336,0,0,0
0.0051,-0.0146,1.0249,-3.6489,20.8626,28.6641,0,0,0
-0.0066,-0.0422,1.0305,2.084,21.1756,35.9695,0,0,0
-0.0115,-0.0591,1.0298,7.3969,21.7634,44.0076,0,0,0
-0.0056,-0.0471,1.0249,12.7023,22.3511,54.0611,0,0,0
0.0056,-0.0012,1.0339,16.6718,23.687,61.1832,0,0,0
0.0215,0.0474,1.0234,19.4962,25.0916,64.0992,0,0,0
0.0195,0.0569,1.0132,21.3282,26.0763,65.5496,0,0,0
0.0085,0.104,0.9946,21.1603,27.4885,65.397,0,0,0
-0.0173,0.1152,0.9565,19.8015,25.1221,64.229,0,0,0
-0.054,0.1719,0.9043,17.9695,18.4885,61.6565,0,0,0
-0.0774,0.208,0.8618,15.5191,7.8092,55.4427,0,0,0
-0.0781,0.2236,0.8455,11.9542,-4.5344,48.8168,0,0,0
-0.0688,0.2637,0.8459,6.3282,-15.2137,40.4122,0,0,0
-0.0515,0.2966,0.8696,-1.5573,-24.5649,30.0153,0,0,0
-0.0447,0.301,0.8767,-9.9313,-32.6947,18.771,0,0,0
-0.0447,0.2578,0.8938,-16.1679,-40.5954,9.3435,0,0,0
-0.0513,0.2207,0.9036,-20.8473,-49.4122,2.9618,0,0,0
-0.0476,0.2024,0.9053,-24.2366,-59.4046,-1.5344,0,0,0
-0.0313,0.1978,0.908,-28.4962,-68.6794,-4.6031,0,0,0
0.0022,0.1838,0.9585,-34.4733,-75.4122,-5.9771,0,0,0
0.0542,0.1333,1.053,-38.771,-74.5878,-4.855,0,0,0
0.116,0.114,1.1475,-40.4656,-64.9237,-3.2519,0,0,0
0.1685,0.0925,1.2068,-38.8397,-47.8855,-2.5954,0,0,0
0.1946,0.1169,1.2419,-33.5115,-28.2748,-3.771,0,0,0
0.1814,0.0698,1.2764,-24.6336,-10.1298,-6.771,0,0,0
0.1636,0.042,1.3042,-9.7481,6.8168,-7.8702,0,0,0
0.1777,0.0654,1.3318,5.7634,24.4809,-10.9084,0,0,0
0.1855,0.0837,1.2993,16.9695,41.1679,-16.7634,0,0,0
0.1528,0.0344,1.2075,21.1374,53.0687,-17.5878,0,0,0
0.0762,-0.0007,1.0977,19.0,56.229,-11.3817,0,0,0
0.0149,-0.0256,1.0374,12.7176,53.7023,0.0763,0,0,0
0.0032,0.0229,1.002,3.7176,49.3511,9.4198,0,0,0
0.0117,0.0188,0.988,-4.626,43.7863,15.4962,0,0,0
0.0122,0.0171,1.0061,-8.8702,40.2672,19.626,0,0,0
0.0208,-0.009,1.011,-9.3435,39.3969,23.313,0,0,0
0.0146,-0.0474,0.9993,-4.8702,39.2901,29.3359,0,0,0
0.0073,-0.0796,1.002,-0.3435,38.6718,38.5725,0,0,0
-0.0044,-0.0754,1.0308,4.3969,38.4962,50.6336,0,0,0
-0.0046,-0.0176,1.0227,6.229,38.4122,60.6565,0,0,0
-0.0188,0.0522,0.9998,4.8321,37.2366,66.3893,0,0,0
-0.0403,0.1157,0.969,3.5802,32.542,66.0611,0,0,0
-0.0796,0.2092,0.9436,2.771,23.8244,59.458,0,0,0
-0.0933,0.2083,0.9438,3.6107,12.5344,44.3206,0,0,0
-0.0439,0.074,0.9812,9.3053,6.3282,43.2901,0,0,0
-0.0264,0.1023,0.9819,13.1985,5.0916,47.0458,0,0,0
-0.0259,0.1067,0.9795,13.3817,4.5038,48.0611,0,0,0
-0.0295,0.1782,1.0022,11.8321,7.5649,44.7328,0,0,0
-0.0281,0.1616,0.9666,11.0992,3.7023,39.5573,0,0,0
-0.0371,0.1895,0.9548,17.1985,1.6336,36.2061,0,0,0
-0.0266,0.2075,0.9216,22.7176,-1.1603,29.8397,0,0,0
-0.0383,0.2258,0.8784,23.9466,-6.6718,25.916,0,0,0
-0.0532,0.2483,0.8486,20.4962,-13.4885,22.7863,0,0,0
-0.0496,0.292,0.842,14.542,-20.9618,18.1756,0,0,0
-0.0313,0.3384,0.8511,5.6107,-28.0916,11.5649,0,0,0
-0.0291,0.3643,0.8542,-5.9924,-34.5878,3.8397,0,0,0
-0.0168,0.3406,0.8826,-17.0992,-41.0687,-3.1298,0,0,0
0.0051,0.2776,0.9272,-26.2214,-44.5802,-6.6641,0,0,0
0.0283,0.2476,0.9678,-33.0458,-46.2901,-8.3435,0,0,0
0.0464,0.2444,1.0166,-38.9466,-44.9847,-10.4962,0,0,0
0.0532,0.2375,1.0337,-42.626,-42.7786,-13.4733,0,0,0
0.0586,0.1973,1.0486,-43.7328,-41.5878,-17.1603,0,0,0
0.0576,0.1362,1.0635,-42.4198,-40.5954,-17.9389,0,0,0
0.0559,0.0574,1.0916,-39.8779,-39.4427,-14.9771,0,0,0
0.0835,0.0327,1.1536,-35.9389,-34.5038,-10.3969,0,0,0
0.1223,-0.0193,1.1555,-29.6794,-27.2137,-6.374,0,0,0
0.1223,-0.0129,1.1482,-24.5802,-19.9008,-2.542,0,0,0
0.1077,-0.0496,1.156,-17.4885,-13.7863,1.2901,0,0,0
0.1101,-0.0762,1.1877,-4.3893,-6.9847,3.0611,0,0,0
0.1177,-0.1821,1.2195,15.0229,0.3588,7.5725,0,0,0
0.1201,-0.1597,1.239,39.2519,10.3206,14.5267,0,0,0
0.1414,-0.1272,1.2014,59.2977,20.458,21.0382,0,0,0
0.0938,-0.0181,1.1204,66.8855,28.3359,25.8015,0,0,0
0.052,0.062,1.0356,62.1908,30.2137,26.7252,0,0,0
0.0273,0.1033,1.002,57.6794,26.8779,25.313,0,0,0
0.0159,0.1382,0.9756,51.3969,21.2061,21.9847,0,0,0
0.0171,0.1184,0.9905,47.6565,17.7481,22.3588,0,0,0
0.0413,0.0969,1.0115,43.3664,16.8015,25.0458,0,0,0
0.0557,0.02,1.0957,42.4046,22.3664,33.7023,0,0,0
0.0696,0.1262,1.0981,46.3435,30.8931,36.1069,0,0,0
0.0659,0.186,1.0352,47.7099,35.229,32.145,0,0,0
0.009,0.2214,0.9771,44.7252,33.9237,29.9084,0,0,0
-0.0347,0.248,0.9238,40.6031,28.1756,27.1679,0,0,0
-0.0242,0.2283,0.9709,31.1908,21.4275,25.9771,0,0,0
-0.0066,0.2607,0.9626,11.8321,19.5878,31.1832,0,0,0
-0.0015,0.3469,0.9666,-10.0305,18.0687,29.8168,0,0,0
0.0144,0.3738,0.9612,-27.145,16.8473,23.9618,0,0,0
-0.0032,0.3298,0.9558,-36.6031,12.4198,17.2748,0,0,0
-0.0195,0.2522,0.9292,-36.2748,7.0534,13.8855,0,0,0
-0.0295,0.2651,0.8867,-32.0382,-1.458,9.3893,0,0,0
-0.0232,0.1709,0.9353,-16.9466,-8.0687,8.1221,0,0,0
0.0034,0.1797,0.9099,-2.7405,-12.8702,7.2824,0,0,0
-0.0144,0.2063,0.8838,5.7328,-19.8779,5.5802,0,0,0
0.0017,0.2778,0.8647,7.1679,-25.9847,3.9618,0,0,0
0.0042,0.332,0.8542,2.6641,-34.8092,-1.1527,0,0,0
0.0105,0.3655,0.8562,-2.7863,-43.2519,-8.3359,0,0,0
0.0388,0.3508,0.887,-8.6107,-49.0534,-14.5878,0,0,0
0.0596,0.333,0.9175,-12.6718,-53.2824,-20.2595,0,0,0
0.0845,0.3,0.9382,-13.374,-55.7099,-24.3206,0,0,0
0.0818,0.3098,0.9275,-14.1679,-59.3206,-28.5878,0,0,0
0.0793,0.3145,0.9194,-17.145,-64.0992,-34.771,0,0,0
0.1003,0.2544,0.9302,-20.2977,-69.1603,-38.0382,0,0,0
0.1257,0.2004,0.99,-22.6718,-71.8855,-37.458,0,0,0
0.1597,0.1746,1.0625,-24.2519,-68.2519,-34.1756,0,0,0
0.1887,0.2136,1.0874,-25.6031,-60.8015,-33.6107,0,0,0
0.188,0.2681,1.145,-31.3817,-52.8702,-34.8702,0,0,0
0.2463,0.2791,1.1233,-34.4504,-41.7481,-42.2214,0,0,0
0.2454,0.2324,1.1794,-30.0687,-30.8473,-50.5802,0,0,0
0.2268,0.2092,1.175,-20.3359,-20.916,-58.8855,0,0,0
0.28,0.0903,1.2727,-4.5344,-6.3664,-60.7863,0,0,0
0.3,0.1155,1.2412,9.4656,9.3511,-64.8168,0,0,0
0.2673,0.0957,1.207,19.1756,21.5802,-69.1832,0,0,0
0.2454,0.2297,1.1707,17.3359,33.4275,-71.0153,0,0,0
0.208,0.2512,1.085,16.2748,39.9847,-78.5878,0,0,0
0.1731,0.2981,1.1333,9.7863,47.4885,-91.5649,0,0,0
0.2268,0.1736,1.113,4.9466,58.9313,-98.1756,0,0,0
0.1838,0.0981,1.0469,3.313,62.8473,-95.0382,0,0,0
0.1028,0.0286,1.0461,4.6794,63.4962,-85.5038,0,0,0
0.0676,0.0559,1.0359,6.916,63.6794,-74.7099,0,0,0
0.0386,0.0476,0.9937,7.7481,61.2519,-66.8321,0,0,0
0.0054,0.0188,0.969,6.5115,56.374,-56.2519,0,0,0
-0.0293,0.0117,0.959,4.9924,50.5038,-42.3817,0,0,0
-0.033,0.0703,0.9529,4.8397,44.3511,-30.1756,0,0,0
-0.0161,0.1724,0.9912,7.8244,39.4885,-28.2061,0,0,0
-0.0095,0.1895,0.981,9.1069,37.1756,-33.2061,0,0,0
-0.0378,0.1338,0.9553,10.3664,33.4198,-34.6031,0,0,0
-0.0881,0.1316,0.9255,12.0611,26.8015,-29.5496,0,0,0
-0.1089,0.1482,0.8921,10.0916,18.0229,-25.5573,0,0,0
-0.1167,0.1553,0.8655,4.8626,6.9389,-23.1069,0,0,0
-0.1248,0.1648,0.8633,-2.0992,-5.3664,-20.4351,0,0,0
-0.1223,0.1375,0.8743,-9.8931,-16.9389,-15.5954,0,0,0
-0.1094,0.1316,0.8811,-19.458,-26.771,-8.4504,0,0,0
-0.085,0.1401,0.9126,-30.0916,-34.0076,-1.0534,0,0,0
-0.0642,0.1917,0.9248,-40.374,-39.9237,2.9008,0,0,0
-0.0491,0.1948,0.9495,-48.4962,-45.5115,1.3435,0,0,0
-0.0322,0.1333,0.98,-52.0153,-49.0458,0.9924,0,0,0
-0.0186,0.0532,1.0156,-50.1985,-50.229,4.5115,0,0,0
0.0063,-0.0259,1.0684,-46.6718,-47.1298,13.9237,0,0,0
0.0427,-0.0601,1.1025,-42.1679,-39.8702,27.4198,0,0,0
0.0667,-0.0627,1.094,-38.4504,-31.0382,41.5344,0,0,0
0.0691,-0.0242,1.0928,-37.4504,-23.9237,52.2977,0,0,0
0.0759,0.0168,1.1174,-37.8244,-15.0534,58.5573,0,0,0
0.0874,0.0479,1.103,-35.7328,-6.855,60.6641,0,0,0
0.0806,0.0117,1.093,-31.7557,-2.687,61.4351,0,0,0
0.0652,-0.073,1.0891,-25.2901,1.687,67.2366,0,0,0
0.0847,-0.0752,1.0847,-14.9924,6.1069,74.8931,0,0,0
0.1067,-0.0225,1.0835,-2.1985,10.5725,78.4275,0,0,0
0.1177,0.0203,1.1079,9.0458,14.8015,75.0763,0,0,0
0.1191,-0.0142,1.1387,23.4504,21.6031,73.084,0,0,0
0.1199,0.0457,1.1643,37.771,30.1221,69.3053,0,0,0
0.1309,0.0347,1.1365,47.8779,38.6565,67.2901,0,0,0
0.1206,0.126,1.0955,52.0076,46.7557,64.9542,0,0,0
0.0737,0.2627,1.0271,50.8855,49.916,54.5038,0,0,0
0.0005,0.3193,0.9668,46.1908,43.9466,36.5038,0,0,0
-0.0098,0.2612,0.9578,38.9466,37.1298,27.145,0,0,0
0.002,0.2634,0.9624,31.6183,32.1603,24.7557,0,0,0
0.019,0.3105,0.9666,23.9847,28.8626,18.3664,0,0,0
0.0186,0.3149,0.9626,16.2977,26.6031,10.1145,0,0,0
-0.0056,0.3115,0.9558,7.7328,23.8244,3.1221,0,0,0
-0.0122,0.2896,0.9551,0.5191,20.0611,-1.542,0,0,0
-0.0166,0.2644,0.9624,-2.5878,16.9618,-4.9924,0,0,0
-0.0254,0.2686,0.9373,-1.9924,11.5725,-10.1908,0,0,0
-0.0237,0.2498,0.9331,-0.7252,6.0153,-14.0305,0,0,0
-0.0247,0.2488,0.9067,-1.0534,0.2443,-16.8931,0,0,0
-0.0398,0.2458,0.8916,-5.0992,-7.771,-18.0382,0,0,0
-0.0437,0.2478,0.8816,-11.8931,-16.1527,-19.2214,0,0,0
-0.0352,0.2444,0.8611,-19.1679,-24.8015,-20.542,0,0,0
-0.0403,0.2539,0.8418,-25.6947,-35.2977,-22.7481,0,0,0
-0.0522,0.2485,0.803,-29.1221,-48.2901,-26.9771,0,0,0
-0.0669,0.2302,0.7627,-30.2595,-66.4122,-32.1908,0,0,0
-0.0825,0.2031,0.7148,-29.1603,-89.8321,-36.2672,0,0,0
-0.0449,0.1531,0.7432,-20.9618,-107.4351,-42.1679,0,0,0
-0.0063,0.1472,0.7744,-8.6565,-129.3893,-44.3053,0,0,0
0.0776,0.1589,0.8997,4.3893,-137.9237,-44.2748,0,0,0
0.1907,0.1082,1.1353,17.4198,-131.1832,-40.313,0,0,0
0.2854,0.2207,1.2661,23.6794,-109.2595,-39.8321,0,0,0
0.3494,0.3872,1.4404,25.7481,-74.3053,-44.8779,0,0,0
0.374,0.4453,1.3782,27.6107,-41.6641,-62.5649,0,0,0
0.3528,0.2769,1.3406,25.5649,-14.6718,-73.7328,0,0,0
0.2703,0.1343,1.2312,22.2901,4.5878,-65.9237,0,0,0
0.1802,0.1333,1.157,16.3969,13.6565,-52.2595,0,0,0
0.1899,0.1343,1.1846,10.1679,27.5114,-45.5649,0,0,0
0.238,0.1868,1.1487,0.9466,38.7023,-39.0611,0,0,0
0.2126,0.1975,1.1458,-7.3664,47.7481,-37.7023,0,0,0
0.2122,0.1975,1.1472,-16.0153,60.916,-36.5649,0,0,0
0.1836,0.1487,1.0879,-20.7023,67.5344,-34.8244,0,0,0
0.1228,0.106,1.0352,-20.2672,69.0611,-31.2137,0,0,0
0.0703,0.0552,0.9824,-15.2595,65.8702,-26.8092,0,0,0
0.0415,0.0137,0.9829,-6.9771,58.6794,-19.9237,0,0,0
0.033,0.0381,0.9907,0.5573,55.0,-13.0687,0,0,0
0.0518,0.0845,0.9788,4.7023,52.542,-8.7176,0,0,0
0.05,0.1243,0.9583,5.3282,50.7328,-7.2977,0,0,0
0.0212,0.1313,0.9163,4.1527,48.0763,-7.084,0,0,0
-0.0242,0.1147,0.8835,1.3588,41.7481,-5.0534,0,0,0
-0.0679,0.0986,0.8369,-2.0382,31.1221,-1.0611,0,0,0
-0.1011,0.0967,0.8037,-5.1603,16.5649,3.5344,0,0,0
-0.1138,0.1211,0.804,-9.0458,0.626,7.458,0,0,0
-0.106,0.1326,0.8083,-13.9237,-14.7786,10.0916,0,0,0
-0.0835,0.1206,0.8318,-19.5191,-27.4504,13.3664,0,0,0
-0.0723,0.0964,0.8699,-24.6107,-37.7405,18.7481,0,0,0
-0.0574,0.0786,0.896,-29.916,-45.8168,25.7939,0,0,0
-0.0422,0.0693,0.9021,-33.7557,-53.1679,32.5573,0,0,0
-0.0247,0.0833,0.9458,-35.7023,-59.916,37.2977,0,0,0
0.0417,0.1091,1.0249,-36.0458,-59.5115,36.7481,0,0,0
0.0872,0.1077,1.0706,-31.3588,-55.5115,33.2595,0,0,0
0.1206,0.0845,1.1238,-23.2595,-49.0611,30.6031,0,0,0
0.1511,0.1448,1.2322,-13.7786,-37.4733,26.0763,0,0,0
0.2122,0.1646,1.3284,-3.8779,-14.0534,21.3053,0,0,0
0.2341,0.1924,1.3225,4.8626,4.6794,11.5649,0,0,0
0.21,0.1724,1.2913,10.0229,23.8397,7.1908,0,0,0
0.1599,0.1323,1.2158,10.8779,35.4351,7.2824,0,0,0
0.0906,0.1382,1.1213,8.1145,39.0305,11.0534,0,0,0
0.0486,0.1694,1.083,3.6107,39.2061,12.916,0,0,0
0.0486,0.1821,1.0693,-0.0305,39.0229,12.8473,0,0,0
0.0493,0.1978,1.0461,-4.5115,38.8473,9.7176,0,0,0
0.031,0.1685,1.0466,-8.4504,38.2595,6.6107,0,0,0
0.0251,0.1499,1.0579,-10.5267,38.6794,6.6489,0,0,0
0.0278,0.1289,1.0608,-10.6565,39.0382,8.5725,0,0,0
0.0188,0.1321,1.0476,-10.9313,38.8702,9.687,0,0,0
0.0081,0.1428,1.0205,-11.1603,37.1756,8.2443,0,0,0
-0.0034,0.1514,0.9915,-12.7939,33.3206,5.5878,0,0,0
0.0002,0.1401,0.981,-14.855,30.2443,3.3282,0,0,0
0.0022,0.1121,0.9604,-16.916,26.4427,2.1985,0,0,0
-0.0056,0.0967,0.9402,-17.2061,21.8015,2.229,0,0,0
-0.01,0.0688,0.9431,-14.8779,16.5344,2.7634,0,0,0
-0.0056,0.0649,0.9468,-11.2595,13.0916,3.9618,0,0,0
-0.002,0.0764,0.9312,-7.1374,9.2061,4.0611,0,0,0
-0.0046,0.0793,0.9392,-3.9466,5.7328,3.7634,0,0,0
-0.009,0.085,0.9409,-2.1527,3.0763,4.1527,0,0,0
-0.0073,0.1003,0.9277,-1.2137,1.0687,4.8321,0,0,0
-0.0112,0.1125,0.9136,-1.3664,-2.4198,4.2366,0,0,0
-0.0359,0.0981,0.9133,-0.8626,-7.2443,4.7099,0,0,0
-0.0381,0.106,0.9287,0.3511,-11.6565,6.313,0,0,0
-0.0154,0.136,0.9548,1.7099,-15.1069,6.4427,0,0,0
-0.0105,0.1528,0.9712,3.2672,-18.1298,4.9466,0,0,0
-0.0098,0.1538,0.989,4.6947,-20.8931,3.2901,0,0,0
-0.0056,0.1462,1.0142,5.7786,-22.8702,2.1221,0,0,0
0.0061,0.1428,1.0403,5.5878,-22.229,2.5191,0,0,0
0.03,0.1553,1.0647,3.6565,-18.9008,3.3435,0,0,0
0.05,0.1831,1.1055,1.6947,-12.6565,2.313,0,0,0
0.0527,0.1882,1.1079,0.229,-7.0305,-0.2977,0,0,0
0.0374,0.175,1.0815,-0.6718,-3.7023,-2.9008,0,0,0
0.02,0.1631,1.0583,-1.1221,-3.0611,-4.3511,0,0,0
0.0115,0.1592,1.0352,-1.2519,-3.7099,-5.1527,0,0,0
0.0144,0.1599,1.0242,-2.0076,-4.9237,-5.9924,0,0,0
0.0232,0.1367,1.0215,-2.4504,-5.4733,-5.9084,0,0,0
0.0276,0.1401,1.0146,-3.3053,-4.8626,-5.3893,0,0,0
0.0249,0.1455,1.0132,-3.3206,-5.3435,-5.5267,0,0,0
0.022,0.135,1.0244,-2.7328,-6.1298,-5.9389,0,0,0
0.03,0.1252,1.0405,-1.626,-5.2977,-6.4122,0,0,0
0.0366,0.1284,1.0386,0.0,-3.9084,-6.5496,0,0,0
0.0271,0.1453,1.0381,2.5344,-4.0763,-7.6183,0,0,0
0.0222,0.1602,1.0388,4.9771,-3.8321,-11.1069,0,0,0
0.0303,0.1372,1.0479,6.313,-3.1374,-13.8244,0,0,0
0.0291,0.1104,1.0391,6.5267,-3.3206,-13.0611,0,0,0
0.0215,0.106,1.0396,5.5725,-3.2214,-10.2824,0,0,0
0.019,0.1304,1.0381,2.9924,-3.374,-7.6336,0,0,0
0.0171,0.1482,1.0308,-0.1908,-3.7481,-8.0076,0,0,0
0.0164,0.1472,1.0291,-3.5802,-4.0458,-10.0916,0,0,0
0.0188,0.1311,1.0288,-4.4046,-4.3588,-11.0153,0,0,0
0.0225,0.1045,1.0198,-2.9618,-4.8321,-11.5267,0,0,0
0.0212,0.0938,1.0183,-0.2366,-5.8855,-11.4504,0,0,0
0.0186,0.1157,1.0132,3.5496,-7.2595,-12.2977,0,0,0
0.0129,0.1165,1.0093,5.7328,-9.0458,-14.9313,0,0,0
0.0125,0.1135,1.009,6.4733,-11.0992,-16.3206,0,0,0
0.0208,0.1282,0.9885,5.8779,-13.5038,-16.9237,0,0,0
0.0215,0.1316,0.9783,4.6794,-16.5725,-17.0,0,0,0
0.0239,0.1392,0.957,3.6489,-21.1145,-18.4504,0,0,0
0.03,0.1692,0.9558,4.7786,-26.6641,-20.9618,0,0,0
0.0552,0.1934,1.0151,6.771,-29.0687,-27.8779,0,0,0
0.094,0.1633,1.105,8.1603,-24.2366,-33.4733,0,0,0
0.1379,0.1621,1.1436,7.6489,-13.2366,-35.4656,0,0,0
0.1416,0.2434,1.1365,6.626,-2.4122,-37.2366,0,0,0
0.1228,0.303,1.0969,4.084,3.2977,-47.8397,0,0,0
0.0874,0.3325,1.0796,5.3359,6.0,-63.7252,0,0,0
0.0894,0.25,1.0325,7.3588,6.6718,-77.7939,0,0,0
0.0527,0.1917,1.0098,13.4351,4.4046,-81.2977,0,0,0
0.0225,0.1509,0.9624,18.9313,0.313,-80.0534,0,0,0
0.0017,0.1335,0.9509,24.4733,-5.5115,-74.9618,0,0,0
0.0017,0.176,0.9453,29.2443,-12.4656,-72.6336,0,0,0
0.0408,0.2754,1.0088,34.5725,-15.0534,-78.1145,0,0,0
0.0908,0.2185,1.0674,37.7328,-11.458,-84.2595,0,0,0
0.0977,0.1418,1.0979,37.3893,-3.6183,-81.6794,0,0,0
0.0562,0.0735,1.0994,34.9542,5.5878,-68.5725,0,0,0
0.0212,0.0588,1.0566,27.8702,11.5954,-50.1069,0,0,0
0.0183,0.1384,1.0281,19.6336,14.6107,-34.8855,0,0,0
0.0425,0.282,1.0332,13.0,15.0153,-32.4809,0,0,0
0.0718,0.3381,1.0308,7.626,16.5038,-42.0458,0,0,0
0.0581,0.251,1.0186,2.458,18.0687,-48.1832,0,0,0
0.0122,0.1472,0.9939,0.1679,17.4351,-42.626,0,0,0
-0.022,0.1016,0.9827,0.3588,15.2901,-30.9313,0,0,0
-0.0181,0.1299,0.9905,0.1298,13.4427,-21.0916,0,0,0
0.0015,0.1768,1.0007,0.0916,11.5115,-16.9008,0,0,0
0.0061,0.2009,1.0054,-1.2137,11.3359,-16.3511,0,0,0
0.0007,0.166,1.0027,-3.8473,11.3511,-14.2443,0,0,0
-0.0227,0.1399,0.9998,-4.4046,10.5115,-8.0382,0,0,0
-0.0271,0.1335,0.9929,-4.0229,9.1298,-1.0305,0,0,0
-0.0295,0.1572,1.0002,-3.3664,7.3511,3.4351,0,0,0
-0.02,0.1658,1.012,-2.4809,6.9237,6.3893,0,0,0
-0.019,0.1895,1.0115,-1.6412,7.0458,7.9389,0,0,0
-0.0198,0.2017,1.0115,-1.9847,7.2366,8.0,0,0,0
-0.0232,0.1875,1.0298,-4.1145,7.1221,7.8473,0,0,0
-0.0188,0.1663,1.0381,-5.8244,8.7252,10.1298,0,0,0
-0.0137,0.1365,1.0586,-8.2748,11.771,14.6489,0,0,0
-0.021,0.085,1.0552,-10.2061,16.1985,22.5725,0,0,0
-0.0291,0.075,1.0159,-11.5191,18.7481,32.3053,0,0,0
-0.0486,0.0835,0.9824,-11.6336,17.7023,42.1985,0,0,0
-0.0623,0.1313,0.9529,-11.3664,13.5191,47.2443,0,0,0
-0.0566,0.1462,0.9517,-13.4962,7.4809,48.7252,0,0,0
-0.0596,0.0828,0.9573,-17.5725,4.1145,54.4122,0,0,0
-0.0598,0.0828,0.9561,-21.458,0.5649,65.1069,0,0,0
-0.0378,0.1353,0.96,-26.4198,-1.9389,72.8779,0,0,0
-0.0151,0.1973,0.9692,-29.8092,-4.3664,72.5344,0,0,0
0.0002,0.2043,1.0159,-30.9084,-5.916,67.1527,0,0,0
0.0115,0.1626,1.0718,-29.7099,-3.3053,61.9084,0,0,0
0.0403,0.127,1.1003,-25.6565,3.7252,60.6412,0,0,0
0.0635,0.0996,1.0947,-17.5878,11.0534,61.3359,0,0,0
0.072,0.1338,1.084,-6.4275,19.2137,59.7405,0,0,0
0.0518,0.1707,1.0508,4.7252,23.7023,51.8855,0,0,0
0.0076,0.1787,1.0239,14.2519,24.1374,42.4427,0,0,0
-0.0195,0.1531,1.0337,20.3282,23.9237,38.2061,0,0,0
-0.0015,0.1411,1.0718,22.3969,28.0534,40.6947,0,0,0
0.0234,0.2234,1.0566,19.626,34.7023,42.0763,0,0,0
0.0103,0.2849,0.9954,13.7099,39.0153,37.2748,0,0,0
-0.0439,0.2717,0.9485,6.7634,37.5191,28.6718,0,0,0
-0.0957,0.2263,0.9043,2.9847,31.2824,23.0992,0,0,0
-0.116,0.1626,0.9207,0.8931,22.4733,22.8015,0,0,0
-0.1006,0.0703,0.9724,4.7176,17.1832,30.5649,0,0,0
-0.0723,0.1328,1.0032,10.9618,16.313,36.7481,0,0,0
-0.0413,0.2095,1.0369,16.145,16.916,36.0687,0,0,0
-0.0415,0.2756,1.0403,19.1832,19.687,29.3435,0,0,0
-0.0527,0.2698,1.0364,19.5878,22.0534,22.6412,0,0,0
-0.0759,0.2639,1.0039,17.9389,22.313,17.8779,0,0,0
-0.0974,0.2388,0.9678,13.8168,19.7405,17.0534,0,0,0
-0.1213,0.259,0.9199,8.3969,13.9237,18.4351,0,0,0
-0.1382,0.2898,0.906,1.7634,5.5878,17.2443,0,0,0
-0.1418,0.313,0.8879,-5.9237,-4.374,14.4046,0,0,0
-0.137,0.3232,0.8867,-13.8244,-14.4427,10.6107,0,0,0
-0.1235,0.3076,0.8979,-21.6031,-22.6183,8.0534,0,0,0
-0.1057,0.2708,0.9407,-28.6565,-28.1374,7.9008,0,0,0
-0.0713,0.249,0.9697,-33.916,-30.6565,8.6183,0,0,0
-0.0574,0.2073,0.9895,-34.626,-32.9542,10.8397,0,0,0
-0.0732,0.1831,0.9807,-32.3588,-36.4962,13.9924,0,0,0
-0.0764,0.1699,0.9775,-29.1069,-41.8702,17.6336,0,0,0
-0.0466,0.1694,0.9968,-26.3817,-45.4351,21.6718,0,0,0
0.0007,0.1873,1.0371,-25.3893,-45.2214,23.916,0,0,0
0.0396,0.2061,1.0535,-24.1603,-41.8702,22.8092,0,0,0
0.0532,0.2029,1.0542,-21.5114,-38.6489,19.8931,0,0,0
0.0427,0.2148,1.0413,-16.9237,-36.8779,16.2977,0,0,0
0.0266,0.1973,0.9805,-12.6489,-38.5802,13.0305,0,0,0
0.0125,0.1868,0.9631,-12.0992,-44.458,12.626,0,0,0
0.0303,0.1831,1.011,-14.0153,-46.8015,13.4809,0,0,0
0.0913,0.2205,1.0552,-16.7099,-43.4733,11.855,0,0,0
0.1296,0.2197,1.0701,-19.4046,-37.2672,7.6565,0,0,0
0.1443,0.1714,1.0996,-16.3969,-25.4809,0.2977,0,0,0
0.1216,0.1372,1.0854,-8.7023,-21.2214,2.2748,0,0,0
0.0774,0.1401,1.0603,-2.145,-17.0305,4.6794,0,0,0
0.0808,0.1523,1.0601,0.4733,-15.5496,6.5038,0,0,0
0.0974,0.1895,1.0654,0.0611,-11.2366,7.0,0,0,0
0.1086,0.2148,1.0393,-2.5954,-7.6641,5.4809,0,0,0
0.0857,0.1975,1.0066,-6.3282,-6.8244,4.0687,0,0,0
0.0632,0.1738,0.9895,-8.7023,-7.1985,3.771,0,0,0
0.0549,0.1443,0.9995,-9.7328,-9.1908,4.7634,0,0,0
0.0693,0.1575,1.0015,-9.4656,-9.9313,5.3359,0,0,0
0.0806,0.1565,1.0063,-8.0305,-10.771,4.8473,0,0,0
0.0754,0.1372,1.0142,-6.4427,-11.2366,4.4427,0,0,0
0.075,0.1438,1.0281,-4.5115,-11.0076,4.2595,0,0,0
0.0828,0.144,1.0396,-3.7328,-10.5191,4.0916,0,0,0
0.093,0.0891,1.064,-2.0458,-8.3359,6.145,0,0,0
0.0991,0.0852,1.0769,0.2748,-5.1145,9.3282,0,0,0
0.0974,0.0698,1.075,2.8855,-1.3435,12.5802,0,0,0
0.0933,0.0569,1.0779,4.3053,2.3282,17.1603,0,0,0
0.1057,0.0662,1.0771,7.458,6.229,20.8779,0,0,0
0.1006,0.1023,1.0322,9.9313,6.6641,21.8702,0,0,0
0.0974,0.1304,1.0459,13.5267,7.8168,19.6947,0,0,0
0.0981,0.1338,1.0464,17.1985,9.542,17.4733,0,0,0
0.1038,0.0955,1.0371,21.2977,11.4351,17.687,0,0,0
0.0989,0.0798,1.0583,25.4504,14.5725,21.9466,0,0,0
0.0945,0.1016,1.0427,26.4046,18.4809,27.0076,0,0,0
0.0913,0.1802,1.0225,23.8092,20.3588,28.3359,0,0,0
0.0767,0.2571,0.9922,18.6489,20.1756,22.8702,0,0,0
0.0547,0.2576,0.9597,14.6412,16.1527,15.9008,0,0,0
0.0417,0.2129,0.9719,12.8168,12.3282,13.9237,0,0,0
0.0393,0.2156,0.9636,12.8779,8.5878,12.8626,0,0,0
0.0574,0.1943,0.9849,13.1298,6.916,13.0382,0,0,0
0.0745,0.2261,1.0042,10.6336,7.313,13.4733,0,0,0
0.0701,0.2751,0.9941,6.5344,7.3282,10.2519,0,0,0
0.0625,0.293,0.9788,-0.5344,6.0534,5.3817,0,0,0
0.0593,0.2825,0.97,-6.0305,4.2366,1.3206,0,0,0
0.0549,0.2493,0.9604,-8.3664,1.458,-1.5496,0,0,0
0.062,0.2363,0.9622,-7.1756,-1.2366,-3.1832,0,0,0
0.0657,0.2341,0.9678,-5.916,-4.1527,-5.4962,0,0,0
0.0803,0.2078,0.9949,-6.0992,-5.7634,-5.7099,0,0,0
0.092,0.2024,1.0259,-7.5496,-4.3817,-4.3435,0,0,0
0.1099,0.2295,1.0291,-10.4351,-1.1221,-5.4733,0,0,0
0.1072,0.2354,1.0139,-13.855,1.7099,-7.7939,0,0,0
0.0889,0.2043,1.0139,-16.5191,2.8855,-9.1756,0,0,0
0.0789,0.1812,1.0139,-15.6794,4.145,-8.374,0,0,0
0.072,0.1809,1.001,-12.9313,4.9237,-8.2977,0,0,0
0.051,0.1917,0.968,-11.1908,3.7786,-8.5954,0,0,0
0.0315,0.1782,0.9719,-11.7557,1.229,-8.0153,0,0,0
0.0298,0.1755,0.9785,-14.4504,-0.1221,-7.2519,0,0,0
0.0413,0.1785,0.9883,-16.687,-1.1603,-7.3893,0,0,0
0.0344,0.1621,0.9895,-16.9313,-2.3206,-7.6107,0,0,0
0.0286,0.1367,0.9963,-17.2061,-3.4733,-6.2672,0,0,0
0.0208,0.1238,1.0015,-17.2137,-5.0763,-5.313,0,0,0
0.019,0.1179,1.0183,-15.3435,-6.7786,-5.3511,0,0,0
0.0259,0.0996,1.0381,-11.8855,-8.313,-4.9695,0,0,0
0.0273,0.0874,1.0503,-8.9618,-8.4504,-3.8473,0,0,0
0.0398,0.0979,1.0627,-6.7099,-7.6336,-3.1603,0,0,0
0.0444,0.0969,1.0684,-5.1145,-6.9008,-2.6183,0,0,0
0.0466,0.0986,1.0786,-3.0916,-6.4809,-2.4427,0,0,0
0.0542,0.0793,1.0679,-1.5802,-5.8397,-2.0763,0,0,0
0.063,0.0847,1.0896,-0.6412,-4.313,-0.1145,0,0,0
0.0737,0.0957,1.0901,0.7328,-1.6641,0.9008,0,0,0
0.0789,0.1077,1.0713,2.4733,0.5954,1.8855,0,0,0
0.0728,0.1167,1.051,3.9313,1.4122,1.7405,0,0,0
0.0762,0.1191,1.0403,6.0382,1.4809,1.8626,0,0,0
0.0745,0.1252,1.0264,8.7176,1.5267,2.145,0,0,0
0.0728,0.126,1.0081,11.5496,0.6641,2.0382,0,0,0
0.0737,0.1233,0.99,14.3435,-0.3664,3.084,0,0,0
0.0674,0.135,0.9897,15.5573,-1.6412,4.4275,0,0,0
0.0627,0.1538,0.9915,15.916,-2.2824,7.2519,0,0,0
0.0784,0.1716,0.9897,16.0763,-3.1832,7.7786,0,0,0
0.0779,0.1963,0.9854,15.5878,-5.0,8.8168,0,0,0
0.0767,0.2332,1.0066,14.8015,-5.8931,9.2595,0,0,0
0.0891,0.2571,1.0183,13.1832,-6.0305,7.2137,0,0,0
0.0955,0.2678,1.0129,10.626,-4.8931,4.9847,0,0,0
0.0918,0.2593,1.0027,6.8855,-4.2672,2.9924,0,0,0
0.0884,0.2515,0.9905,3.0,-4.2061,1.2672,0,0,0
0.0842,0.2329,0.981,0.1527,-4.9618,0.9084,0,0,0
0.0732,0.2415,0.9885,-1.5878,-6.7099,0.6565,0,0,0
0.0791,0.2449,0.998,-2.8626,-7.2824,-0.6718,0,0,0
0.0894,0.2466,1.0059,-4.4427,-7.0153,-2.5878,0,0,0
0.103,0.2227,1.0061,-6.9084,-5.4351,-3.6031,0,0,0
0.1064,0.2092,0.9985,-9.4275,-4.1985,-3.6412,0,0,0
0.1003,0.1824,1.0024,-10.1908,-3.0611,-3.2824,0,0,0
0.1016,0.168,1.0054,-9.3435,-2.6336,-3.2061,0,0,0
0.105,0.1597,1.0115,-7.1908,-3.0076,-2.9466,0,0,0
0.1082,0.1709,1.0225,-4.9084,-2.0076,-2.9618,0,0,0
0.116,0.1726,1.0286,-3.2061,-0.8015,-3.458,0,0,0
0.1118,0.1631,1.0181,-2.1679,-0.0534,-3.3588,0,0,0
0.0991,0.1665,1.0103,-1.6107,0.4733,-2.7863,0,0,0
0.0879,0.1714,1.0144,-1.7481,0.5115,-1.9771,0,0,0
0.0801,0.1816,1.0017,-2.2061,0.8244,-1.2595,0,0,0
0.0696,0.1895,0.998,-3.2519,0.7252,-1.4504,0,0,0
0.0654,0.1931,0.9949,-4.4885,-0.8473,-1.9084,0,0,0
0.0662,0.1865,1.0027,-4.5344,-2.1985,-2.5725,0,0,0
0.071,0.1821,1.0046,-4.0458,-3.4427,-2.1374,0,0,0
0.0745,0.1802,1.0234,-4.1832,-3.7405,-2.4656,0,0,0
0.0784,0.1692,1.0344,-4.9771,-2.5038,-2.3817,0,0,0
0.0791,0.1711,1.0354,-6.7176,-1.4656,-1.7557,0,0,0
0.0715,0.1597,1.03,-8.2824,-1.1908,-1.9618,0,0,0
0.073,0.1458,1.0437,-8.6794,-1.0534,-2.2443,0,0,0
0.0796,0.1328,1.0349,-6.687,-0.8168,-1.687,0,0,0
0.0786,0.1296,1.0374,-4.3588,-0.4656,-1.5267,0,0,0
0.0757,0.136,1.0354,-2.0382,0.2748,-1.2519,0,0,0
0.0754,0.1343,1.0242,-0.5802,0.7939,-0.6107,0,0,0
0.0793,0.1377,1.0198,0.7863,0.9924,-0.3817,0,0,0
0.0793,0.137,1.0166,1.2824,0.9847,-0.0916,0,0,0
0.0786,0.147,1.0256,2.1832,1.3282,0.7176,0,0,0
0.0781,0.1599,1.0212,3.229,1.626,1.2824,0,0,0
0.0769,0.1758,1.0212,4.1221,1.2061,1.0916,0,0,0
0.0745,0.1851,1.0229,3.8855,1.8092,0.7099,0,0,0
0.0764,0.1846,1.0166,3.0229,2.7328,0.9695,0,0,0
0.0791,0.1924,1.0144,2.4427,2.7328,1.1603,0,0,0
0.0728,0.1885,1.011,1.8473,2.3282,0.8397,0,0,0
0.0647,0.1958,1.001,0.8855,2.2519,0.5191,0,0,0
0.0642,0.1995,0.9963,-0.4046,1.4122,0.0305,0,0,0
0.0603,0.1924,1.0002,-1.5725,0.1679,-0.6489,0,0,0
0.0732,0.1804,0.9919,-2.458,-0.7557,-0.4733,0,0,0
0.073,0.177,0.9983,-3.1679,-1.2137,-0.6412,0,0,0
0.072,0.1704,1.0117,-3.8626,-1.8015,-0.6641,0,0,0
0.0813,0.1646,1.0081,-3.9924,-1.6947,-0.6947,0,0,0
0.0806,0.1636,1.0,-3.6718,-1.5115,-0.5267,0,0,0
0.0774,0.1562,1.0093,-3.6947,-1.7405,-0.3817,0,0,0
0.0869,0.1479,1.0127,-3.1985,-1.9084,-0.3282,0,0,0
0.0906,0.1519,1.0144,-1.5649,-2.2595,0.0153,0,0,0
0.0972,0.1558,1.0159,0.8244,-2.3206,0.6794,0,0,0
0.0979,0.1702,1.0396,2.9008,-2.4198,0.374,0,0,0
0.103,0.1843,1.0376,3.8473,-1.1985,-0.1527,0,0,0
0.1045,0.189,1.0386,3.3359,0.1527,-0.4122,0,0,0
0.1055,0.2039,1.0464,1.7481,1.9542,-0.2366,0,0,0
0.104,0.21,1.0251,1.0153,2.9924,-0.0611,0,0,0
0.0957,0.2073,1.0203,1.2519,2.8168,-0.5725,0,0,0
0.0833,0.2107,1.0103,2.1221,2.1221,-1.4504,0,0,0
0.0791,0.2158,1.012,2.4046,0.7786,-2.0305,0,0,0
0.0859,0.2148,1.0159,1.6947,0.8015,-1.771,0,0,0
0.0913,0.218,1.0103,-0.1374,0.6947,-1.7634,0,0,0
0.0872,0.2126,1.0117,-1.8702,1.3511,-2.0305,0,0,0
0.0803,0.2087,1.0107,-3.2519,0.8702,-2.4351,0,0,0
0.0801,0.2019,1.0076,-4.1908,0.5802,-2.3206,0,0,0
0.0742,0.1929,1.0066,-4.3282,0.0992,-3.1756,0,0,0
0.0737,0.1804,1.001,-3.9466,-1.3435,-3.2061,0,0,0
0.0752,0.1729,1.0095,-3.8397,-1.9542,-3.2519,0,0,0
0.0842,0.1646,1.0215,-3.9771,-2.2137,-3.0153,0,0,0
0.0962,0.1516,1.0398,-4.0076,-0.3511,-2.4198,0,0,0
0.0886,0.1484,1.0173,-4.0,1.1527,-1.5954,0,0,0
0.0757,0.1487,1.0168,-3.4198,2.0,-1.6031,0,0,0
0.0684,0.1604,1.0007,-4.771,1.0305,-1.6794,0,0,0
0.074,0.1763,1.0105,-4.8092,1.9084,-1.2595,0,0,0
0.074,0.1392,1.021,-5.3664,1.9466,-1.8779,0,0,0
0.0669,0.1597,1.0117,-4.1832,2.2977,-1.2672,0,0,0
0.0701,0.1548,0.9993,-1.7863,2.7252,-0.9695,0,0,0
0.0564,0.1694,1.0027,-1.7023,2.0229,-1.4275,0,0,0
0.0554,0.1646,1.0088,-1.3893,1.7099,-1.5038,0,0,0
0.0674,0.156,1.0044,-1.1298,1.4275,-1.2824,0,0,0
0.0693,0.1685,1.0066,-0.8015,1.3206,-0.771,0,0,0
0.0603,0.1643,1.0005,-1.0611,0.8855,-0.8473,0,0,0
0.0627,0.1677,1.0156,-0.6107,0.5649,-0.4656,0,0,0
0.0679,0.1765,1.0122,0.2977,0.3053,-0.5038,0,0,0
0.0735,0.1885,1.0098,1.1908,0.6565,-0.2443,0,0,0
0.0779,0.198,1.0151,0.8397,0.7405,-0.8397,0,0,0
0.0801,0.1943,1.019,-0.1679,0.8168,-0.7252,0,0,0
0.0698,0.1938,1.0144,-1.5496,0.6641,-0.2748,0,0,0
0.0801,0.2039,1.0115,-1.5344,0.9771,-0.5344,0,0,0
0.0803,0.1948,1.0151,-0.4809,0.8855,-1.6107,0,0,0
0.0723,0.2126,0.9946,-0.1298,0.3511,-1.5649,0,0,0
0.0725,0.2134,0.998,-0.0382,-0.1221,-2.2443,0,0,0
0.0781,0.208,0.9893,-0.4275,-0.0687,-2.4885,0,0,0
0.0813,0.2122,0.9895,-2.2748,-0.4504,-2.4504,0,0,0
0.0786,0.2078,0.9949,-4.0992,-1.4427,-3.2595,0,0,0
0.0791,0.2031,0.9976,-5.9008,-1.5725,-3.4351,0,0,0
0.0728,0.1941,0.9937,-6.5267,-1.8855,-3.6107,0,0,0
0.0769,0.1899,1.0007,-6.5573,-2.0229,-3.9466,0,0,0
0.0737,0.1792,0.9961,-5.8473,-2.4275,-3.9618,0,0,0
0.0732,0.1743,1.0022,-5.7328,-2.8244,-3.5344,0,0,0
0.071,0.1775,1.0027,-5.374,-3.2214,-3.1527,0,0,0
0.0718,0.1724,1.002,-5.3511,-3.9389,-3.5115,0,0,0
0.0649,0.1687,1.01,-4.542,-4.5573,-3.8244,0,0,0
0.0603,0.1628,1.0166,-4.6183,-4.3893,-3.6718,0,0,0
0.0601,0.1521,1.0037,-4.0382,-4.3664,-3.2595,0,0,0
0.0625,0.1572,1.0007,-4.2977,-4.9542,-2.4351,0,0,0
0.0554,0.1526,0.9985,-4.7328,-5.3817,-2.2672,0,0,0
0.0496,0.1553,1.0,-5.2443,-6.4885,-2.1374,0,0,0
0.0569,0.1548,1.0105,-5.6565,-6.9466,-2.2366,0,0,0
0.0625,0.1521,1.0198,-5.4504,-7.7176,-2.1145,0,0,0
0.0764,0.1541,1.0181,-5.7023,-6.7557,-2.4427,0,0,0
0.0735,0.1553,1.0256,-6.0992,-6.6794,-2.458,0,0,0
0.0742,0.1655,1.0244,-6.2977,-6.8015,-2.5115,0,0,0
0.0737,0.167,1.0171,-6.3817,-7.4046,-2.8168,0,0,0
0.0703,0.1721,1.03,-6.8473,-8.374,-2.9847,0,0,0
0.084,0.1787,1.0374,-7.2672,-8.313,-2.8702,0,0,0
0.0994,0.1841,1.0596,-7.3969,-6.9542,-3.0611,0,0,0
0.1111,0.2058,1.0596,-7.2595,-5.6947,-4.5725,0,0,0
0.1179,0.2058,1.0608,-6.5191,-3.7557,-7.0763,0,0,0
0.0957,0.1963,1.0374,-6.1679,-2.8702,-8.4122,0,0,0
0.0889,0.1987,1.0093,-7.1069,-3.1756,-8.5115,0,0,0
0.0676,0.1887,0.9888,-9.0382,-6.2519,-8.374,0,0,0
0.0574,0.1736,1.0029,-11.7863,-10.4351,-8.0458,0,0,0
0.0676,0.1301,1.0432,-13.9313,-11.7481,-7.1603,0,0,0
0.1084,0.1216,1.0508,-13.5725,-11.0382,-3.8244,0,0,0
0.1333,0.1506,1.0444,-12.0458,-8.8702,-0.9466,0,0,0
0.1331,0.1895,1.0244,-10.6107,-7.4809,-1.1374,0,0,0
0.1113,0.2087,1.0046,-10.9542,-6.5725,-3.9084,0,0,0
0.0977,0.2209,0.9937,-11.8397,-6.0153,-8.374,0,0,0
0.1062,0.2117,1.0144,-12.5878,-6.0611,-12.1985,0,0,0
0.1248,0.2747,1.0439,-10.8168,-4.3511,-21.6641,0,0,0
0.1416,0.2673,1.052,-13.5191,0.1985,-34.0687,0,0,0
0.1494,0.2192,1.0791,-11.7786,3.6412,-43.0763,0,0,0
0.1504,0.2129,1.0815,-6.9313,7.3588,-49.3053,0,0,0
0.1487,0.2539,1.1052,0.0153,13.4275,-61.1069,0,0,0
0.158,0.2478,1.0776,7.8855,20.5573,-75.6183,0,0,0
0.1404,0.2546,1.0613,18.9008,25.3893,-89.2595,0,0,0
0.1182,0.2058,1.0276,27.1756,27.8397,-100.084,0,0,0
0.0823,0.1411,1.0322,35.5115,28.5954,-102.8168,0,0,0
0.0562,0.0896,0.999,40.3359,26.8931,-98.1527,0,0,0
0.0283,0.042,0.9822,41.2061,23.9618,-86.458,0,0,0
-0.0098,0.02,0.9678,36.458,20.3435,-69.2901,0,0,0
-0.0273,0.0593,0.9573,26.6107,15.9695,-51.2214,0,0,0
-0.0193,0.0933,0.9529,13.4885,11.9008,-35.5191,0,0,0
-0.0105,0.1406,0.9624,-0.0305,7.2748,-24.5573,0,0,0
0.0159,0.1533,1.0166,-10.3511,5.3206,-18.5954,0,0,0
0.0574,0.1272,1.0759,-15.0916,8.374,-14.374,0,0,0
0.0811,0.0847,1.1025,-12.2214,14.7481,-9.084,0,0,0
0.0806,0.0879,1.1055,-3.084,20.0534,-5.2443,0,0,0
0.0679,0.085,1.1287,8.1908,25.229,-4.1603,0,0,0
0.0527,0.0378,1.1226,17.9237,31.3053,-0.3588,0,0,0
0.0408,0.0247,1.1321,24.4733,38.8092,8.458,0,0,0
0.0549,0.0405,1.1272,26.8473,48.2977,20.7176,0,0,0
0.0483,0.1223,1.0728,26.687,56.5191,29.9695,0,0,0
0.0286,0.2136,1.0303,24.5802,59.7176,30.3893,0,0,0
-0.0037,0.2495,0.9954,23.7176,58.6794,25.3817,0,0,0
-0.0503,0.2407,0.9766,23.9084,55.626,20.6718,0,0,0
-0.0696,0.1687,0.9927,25.0,51.916,21.5191,0,0,0
-0.0645,0.1296,1.0085,28.9008,52.0763,28.8779,0,0,0
-0.0571,0.1802,0.9797,31.2214,52.5649,34.9084,0,0,0
-0.0723,0.2327,0.9402,28.2977,51.2214,36.6794,0,0,0
-0.1008,0.2502,0.9209,22.0992,46.7023,37.2824,0,0,0
-0.1189,0.3127,0.9172,15.7176,41.0,35.7176,0,0,0
-0.1108,0.3372,0.9387,11.0076,34.9847,29.6641,0,0,0
-0.0867,0.3135,0.9602,7.5649,32.2137,23.9008,0,0,0
-0.0825,0.3125,0.9302,6.0,30.4046,20.458,0,0,0
-0.1008,0.303,0.9133,2.4885,26.9771,17.7023,0,0,0
-0.136,0.2869,0.8694,-2.0763,21.6641,17.1832,0,0,0
-0.1562,0.2944,0.8564,-7.3511,14.626,16.5725,0,0,0
-0.1826,0.2905,0.8118,-12.3206,2.4351,16.2366,0,0,0
-0.1936,0.2935,0.7954,-16.4122,-10.1298,15.5344,0,0,0
-0.1938,0.2813,0.8054,-21.0229,-22.542,15.0382,0,0,0
-0.1804,0.2834,0.8135,-26.1374,-33.8779,15.2672,0,0,0
-0.1619,0.2737,0.8118,-31.6412,-44.542,15.7099,0,0,0
-0.1592,0.2683,0.8335,-37.3511,-56.2519,17.0076,0,0,0
-0.1367,0.2542,0.8745,-43.542,-65.3817,18.0611,0,0,0
-0.0901,0.2344,0.9365,-49.2366,-71.2137,19.2672,0,0,0
-0.0415,0.2222,0.9912,-52.8931,-72.5267,20.8702,0,0,0
-0.0042,0.2119,1.0508,-52.9008,-70.7863,20.9924,0,0,0
0.0254,0.1904,1.1013,-50.5954,-64.8015,20.0153,0,0,0
0.05,0.167,1.1038,-45.1603,-57.4733,19.6641,0,0,0
0.0515,0.1553,1.0916,-38.6336,-50.6641,19.0916,0,0,0
0.0452,0.135,1.0791,-31.4733,-45.771,18.4733,0,0,0
0.0518,0.126,1.0879,-23.8779,-40.3282,18.626,0,0,0
0.0742,0.1038,1.092,-18.0305,-33.5267,20.0534,0,0,0
0.0793,0.1108,1.0967,-13.8397,-25.916,23.1145,0,0,0
0.075,0.1365,1.072,-10.5878,-19.7557,24.0,0,0,0
0.0627,0.1448,1.0593,-8.626,-16.6336,23.458,0,0,0
0.0476,0.1565,1.0378,-6.8702,-15.2214,22.4733,0,0,0
0.0403,0.1541,1.0288,-5.1374,-15.6641,21.8473,0,0,0
0.0537,0.1282,1.0378,-4.4733,-16.5038,23.8626,0,0,0
0.0747,0.1172,1.0552,-4.0382,-14.2214,26.8244,0,0,0
0.092,0.1174,1.0762,-2.0534,-9.687,29.5038,0,0,0
0.093,0.136,1.0703,2.4504,-5.9542,29.771,0,0,0
0.0862,0.1726,1.0549,8.7099,-3.3435,26.2519,0,0,0
0.0803,0.1614,1.0535,13.7939,-2.2519,23.7252,0,0,0
0.0884,0.1272,1.0713,16.1832,-0.2366,24.9237,0,0,0
0.1003,0.1133,1.0813,17.9771,4.8855,30.313,0,0,0
0.1321,0.1267,1.1272,17.3893,13.4351,35.7252,0,0,0
0.1458,0.1658,1.1208,14.7863,23.6718,38.9771,0,0,0
0.126,0.2153,1.054,12.1069,30.3053,38.0382,0,0,0
0.0835,0.2109,1.0005,10.1374,31.1756,35.1298,0,0,0
0.0544,0.1663,0.9563,10.3588,27.5954,35.2901,0,0,0
0.0474,0.1257,0.9507,13.4122,22.0305,38.8397,0,0,0
0.0581,0.1589,0.9578,20.145,18.3206,41.2672,0,0,0
0.0806,0.2019,0.9829,27.4427,18.1298,39.2595,0,0,0
0.0906,0.2122,1.0295,33.0229,19.084,39.9008,0,0,0
0.0771,0.269,1.0386,33.9237,23.5496,38.229,0,0,0
0.0801,0.2996,1.0007,31.4733,26.771,34.8092,0,0,0
0.0559,0.3425,0.9546,26.084,25.9237,28.3206,0,0,0
0.0144,0.3103,0.9219,21.6336,21.4046,23.0916,0,0,0
0.0034,0.3032,0.9119,17.542,14.374,20.0687,0,0,0
0.0105,0.2896,0.9692,14.7252,9.2137,18.1069,0,0,0
0.0383,0.2734,1.0144,12.4122,8.6107,17.8244,0,0,0
0.0532,0.2979,1.0315,10.0687,12.1069,14.1908,0,0,0
0.0459,0.2832,1.0068,7.9084,13.4656,11.7099,0,0,0
0.0093,0.2854,0.9802,6.5725,11.6336,9.3435,0,0,0
-0.0198,0.282,0.9658,5.3588,6.8702,6.5115,0,0,0
-0.0173,0.2603,0.9695,5.7328,1.9618,5.8626,0,0,0
0.0002,0.2568,0.9873,7.6183,-1.4885,4.9466,0,0,0
0.0259,0.2314,1.0291,8.9618,-1.8092,5.3053,0,0,0
0.0422,0.2517,1.0549,7.084,1.8855,6.2901,0,0,0
0.0327,0.2815,1.0452,3.5267,4.7023,5.4046,0,0,0
0.021,0.2712,1.0034,0.0076,5.8168,3.9771,0,0,0
-0.0083,0.2805,0.9763,-1.9084,3.145,2.6107,0,0,0
-0.0159,0.2913,0.9634,-2.4733,-1.0076,0.6565,0,0,0
0.0007,0.2871,0.9666,-2.1221,-4.5725,-1.1221,0,0,0
0.012,0.2947,0.9727,-2.9313,-6.2977,-4.0076,0,0,0
0.0144,0.291,0.968,-5.2061,-7.6336,-6.1985,0,0,0
-0.012,0.3018,0.9395,-7.8779,-10.9847,-8.7786,0,0,0
-0.0146,0.2908,0.9395,-8.9389,-16.0076,-11.9924,0,0,0
0.002,0.2751,0.915,-7.5344,-20.8168,-14.8321,0,0,0
-0.0149,0.2349,0.9253,-4.3282,-28.5954,-15.7939,0,0,0
-0.0229,0.2131,0.9248,-2.687,-35.4275,-13.2366,0,0,0
-0.0168,0.25,0.9084,-3.8244,-42.2977,-11.9084,0,0,0
-0.0056,0.3098,0.8616,-9.0229,-51.1374,-14.1679,0,0,0
-0.0115,0.3257,0.8347,-15.4809,-63.5573,-18.916,0,0,0
0.0059,0.301,0.8398,-21.6031,-76.1832,-22.1298,0,0,0
0.0564,0.1938,0.9941,-27.3893,-80.9695,-19.3969,0,0,0
0.1479,0.178,1.0894,-30.2366,-72.7863,-13.7863,0,0,0
0.1892,0.2219,1.1199,-30.458,-61.771,-10.9847,0,0,0
0.1738,0.2864,1.0352,-35.084,-57.9847,-11.6107,0,0,0
0.1577,0.2554,1.0544,-37.5496,-45.8473,-13.5802,0,0,0
0.1384,0.1863,1.0681,-36.7099,-45.5496,-13.3588,0,0,0
0.1711,0.2234,1.0623,-34.3282,-41.5649,-12.0076,0,0,0
0.1992,0.1956,1.0898,-28.2061,-37.1221,-13.3282,0,0,0
0.23,0.2605,1.0676,-22.3969,-29.4885,-17.9542,0,0,0
0.217,0.2498,1.0769,-18.1374,-23.1832,-22.5267,0,0,0
0.2139,0.2329,1.1089,-16.2061,-16.2061,-25.1603,0,0,0
0.2056,0.3125,1.104,-12.0687,-7.1603,-30.5114,0,0,0
0.2363,0.3088,1.0801,-12.8931,1.1145,-40.8855,0,0,0
0.2361,0.2805,1.0481,-16.8244,7.5038,-47.7099,0,0,0
0.2083,0.2766,1.0259,-21.5038,11.5038,-53.9237,0,0,0
0.2014,0.2522,1.0396,-26.5114,14.1985,-59.5344,0,0,0
0.2368,0.1655,1.0413,-31.3511,18.6412,-58.687,0,0,0
0.2075,0.2542,1.0955,-32.5191,29.5573,-56.6641,0,0,0
0.2297,0.2639,1.0642,-35.626,38.4046,-65.1985,0,0,0
0.2061,0.1152,1.0911,-35.7786,46.0687,-68.1832,0,0,0
0.1741,0.0134,1.0596,-25.4962,52.3817,-61.0458,0,0,0
0.1179,-0.0493,1.0281,-9.855,53.4656,-49.7252,0,0,0
0.0876,0.0039,1.0254,7.4504,52.3588,-39.1832,0,0,0
0.0881,0.1479,1.0405,22.229,51.8168,-39.6412,0,0,0
0.1042,0.2349,1.0322,31.0305,52.8244,-51.0,0,0,0
0.0872,0.1548,1.0107,33.0992,53.6489,-58.3664,0,0,0
0.0374,0.0559,0.9685,34.542,51.8779,-50.5878,0,0,0
-0.0171,0.0215,0.9587,33.0916,46.7252,-33.4427,0,0,0
-0.0251,0.0764,0.9568,28.0458,41.6412,-16.3206,0,0,0
-0.0085,0.1809,0.938,19.9313,36.4351,-8.855,0,0,0
0.0002,0.2349,0.9631,8.9542,32.0763,-9.5649,0,0,0
0.0066,0.218,0.9961,-0.313,30.3588,-10.7099,0,0,0
0.001,0.1597,1.0107,-5.4504,30.0076,-8.9008,0,0,0
0.0039,0.0542,1.0261,-1.2214,31.3359,-1.626,0,0,0
-0.001,0.021,1.0339,9.0992,33.3817,8.4809,0,0,0
-0.0012,0.0049,1.0601,18.3969,36.8168,18.9313,0,0,0
0.0029,0.041,1.0603,23.9847,42.6031,31.1298,0,0,0
-0.0034,0.1252,1.0059,23.5038,45.9847,40.7176,0,0,0
-0.0447,0.1694,0.9272,16.8779,43.458,46.7023,0,0,0
-0.0945,0.2017,0.8672,9.3588,34.6183,51.229,0,0,0
-0.1287,0.2437,0.8296,0.6336,20.7863,52.0076,0,0,0
-0.1328,0.2632,0.8352,-8.8855,6.458,51.626,0,0,0
-0.1123,0.292,0.8572,-17.6489,-5.374,48.3893,0,0,0
-0.0811,0.2505,0.8984,-25.9084,-13.2137,43.4046,0,0,0
-0.0603,0.2058,0.9299,-28.5267,-17.7939,39.9847,0,0,0
-0.0564,0.2349,0.9238,-29.7328,-22.8473,38.2137,0,0,0
-0.0554,0.2595,0.9443,-31.0382,-27.8702,32.9847,0,0,0
-0.0457,0.2551,0.948,-29.1908,-33.084,25.7481,0,0,0
-0.0234,0.2419,0.9739,-24.9466,-34.2901,19.5038,0,0,0
-0.021,0.2258,0.9812,-19.3817,-37.3817,15.0534,0,0,0
-0.0142,0.2268,0.9714,-13.0763,-38.8626,11.1298,0,0,0
-0.0178,0.2292,0.9656,-8.8626,-42.3817,7.6031,0,0,0
-0.01,0.293,0.9824,-3.7176,-46.313,2.2137,0,0,0
0.0337,0.363,1.0471,1.0534,-45.458,-11.5115,0,0,0
0.0789,0.3733,1.0781,1.0153,-39.4809,-25.2824,0,0,0
0.0679,0.3354,1.0532,-2.5115,-36.0916,-36.3206,0,0,0
0.0391,0.3623,1.0391,-3.0382,-35.8321,-46.7939,0,0,0
0.041,0.3169,1.0232,-4.7405,-38.229,-59.6336,0,0,0
0.0605,0.1777,1.0598,-7.5038,-38.4275,-64.8244,0,0,0
0.0632,0.0537,1.1104,-6.9771,-34.4504,-54.3969,0,0,0
0.0769,0.0894,1.1382,-5.7557,-26.8092,-37.7786,0,0,0
0.0969,0.2017,1.1233,-5.5038,-18.7481,-31.6641,0,0,0
0.1265,0.229,1.1472,-6.9924,-10.8244,-37.1603,0,0,0
0.126,0.1479,1.2056,-3.3817,-0.9542,-39.4427,0,0,0
0.1428,0.1187,1.25,4.313,13.1985,-37.4962,0,0,0
0.1521,0.0522,1.2463,12.1298,30.1908,-29.9389,0,0,0
0.1394,0.0757,1.2205,18.8931,46.0382,-20.7328,0,0,0
0.1069,0.0845,1.1768,23.3588,57.916,-13.5344,0,0,0
0.0793,0.071,1.1428,26.2901,66.5344,-6.7099,0,0,0
0.0662,0.0745,1.0999,28.7939,72.2366,2.5878,0,0,0
0.0469,0.1274,1.0393,28.6031,75.4733,9.6565,0,0,0
0.0266,0.0957,1.0083,32.2977,76.2214,15.1908,0,0,0
-0.0129,0.1091,0.9385,39.7557,72.7023,18.8397,0,0,0
-0.0508,0.1082,0.9053,44.6794,65.8168,22.5725,0,0,0
-0.071,0.1797,0.8706,44.0076,57.8321,27.2672,0,0,0
-0.0728,0.1829,0.9006,36.9084,51.1221,32.8702,0,0,0
-0.0615,0.2122,0.886,26.6489,46.9084,40.5954,0,0,0
-0.0781,0.2483,0.8376,15.8015,39.6641,46.9847,0,0,0
-0.1211,0.28,0.7878,6.9618,27.4656,51.1603,0,0,0
-0.1616,0.3628,0.7458,-0.4046,11.1374,46.0229,0,0,0
-0.1643,0.3569,0.7532,-4.3053,-7.1145,35.4122,0,0,0
-0.1255,0.3782,0.7754,-6.0382,-21.1756,29.2901,0,0,0
-0.0913,0.4133,0.8025,-9.3282,-31.9695,21.6031,0,0,0
-0.0742,0.3848,0.8521,-14.5267,-39.374,14.4656,0,0,0
-0.0632,0.3401,0.8757,-18.9008,-43.9542,10.8015,0,0,0
-0.0718,0.3208,0.875,-24.8244,-49.1908,10.687,0,0,0
-0.0542,0.3672,0.9102,-31.458,-51.6412,8.2519,0,0,0
-0.0295,0.3564,0.907,-37.8321,-56.9313,3.0534,0,0,0
-0.0212,0.3257,0.9209,-42.7557,-61.1756,-0.7557,0,0,0
0.0015,0.26,0.9724,-44.8168,-64.084,-2.5496,0,0,0
0.04,0.1929,1.0464,-43.0611,-61.626,-1.1069,0,0,0
0.0935,0.22,1.0967,-36.3359,-54.1298,-0.7786,0,0,0
0.1113,0.2451,1.0979,-29.4962,-44.2366,-6.2366,0,0,0
0.1089,0.2158,1.1248,-23.9466,-35.3435,-10.0992,0,0,0
0.092,0.1792,1.1619,-20.1527,-24.3817,-9.0076,0,0,0
0.1118,0.2322,1.179,-16.8015,-12.5878,-9.4427,0,0,0
0.156,0.3,1.2256,-12.5267,1.2901,-16.5649,0,0,0
0.1709,0.2878,1.2524,-7.3435,18.0992,-28.4885,0,0,0
0.1475,0.2705,1.2324,2.5725,33.4656,-39.3359,0,0,0
0.1179,0.1919,1.1853,11.542,44.8244,-47.5802,0,0,0
0.0684,0.1257,1.1543,19.2443,53.1298,-46.7176,0,0,0
0.0374,0.1538,1.1106,26.5496,58.9695,-41.5038,0,0,0
0.0225,0.207,1.0659,27.7939,60.9771,-40.8626,0,0,0
-0.0007,0.26,1.0208,27.1832,60.0534,-44.4885,0,0,0
-0.0439,0.2087,0.9543,23.145,56.0458,-46.5344,0,0,0
-0.1001,0.1616,0.9033,19.3817,46.5878,-40.6794,0,0,0
-0.1323,0.1851,0.8811,18.0305,34.1069,-33.2366,0,0,0
-0.1255,0.1943,0.9175,14.7863,23.3969,-27.9924,0,0,0
-0.0925,0.2546,0.9358,13.0153,16.4198,-27.5114,0,0,0
-0.0786,0.2187,0.97,7.8931,13.1603,-27.3588,0,0,0
-0.0754,0.2043,0.9722,0.5496,11.687,-21.7481,0,0,0
-0.0896,0.2209,0.9575,-5.1298,9.7481,-15.771,0,0,0
-0.0903,0.3059,0.9758,-8.4427,6.5802,-17.2824,0,0,0
-0.0762,0.3154,0.9795,-11.8321,4.4656,-25.6641,0,0,0
-0.0759,0.2815,0.9668,-14.5573,1.5115,-32.3588,0,0,0
-0.0918,0.2385,0.9697,-18.5573,-1.1908,-31.6794,0,0,0
-0.0938,0.22,0.9565,-24.4809,-3.374,-27.6565,0,0,0
-0.0879,0.2058,0.9612,-30.7176,-5.1145,-22.771,0,0,0
-0.083,0.2373,0.9766,-34.229,-6.4351,-21.6183,0,0,0
-0.0732,0.2109,0.9851,-37.374,-5.374,-23.4809,0,0,0
-0.0676,0.1755,0.9836,-37.7557,-4.6641,-22.5114,0,0,0
-0.0754,0.104,1.0034,-36.4733,-4.3282,-16.5878,0,0,0
-0.0681,0.1428,1.0378,-31.3664,-1.0992,-11.7176,0,0,0
-0.051,0.1589,1.0212,-27.3053,1.4427,-11.8473,0,0,0
-0.0552,0.0947,1.0271,-20.0,3.7176,-10.7481,0,0,0
-0.0762,0.0693,1.0071,-7.8626,5.0153,-6.4504,0,0,0
-0.0938,0.0686,0.9883,3.4885,4.3893,-2.2901,0,0,0
-0.0991,0.0867,0.9575,12.6489,0.542,1.6565,0,0,0
-0.1001,0.1169,0.9602,16.8779,-2.8321,5.0992,0,0,0
-0.0833,0.1494,0.9878,15.916,-5.0458,8.374,0,0,0
-0.0537,0.1873,1.0269,10.4656,-2.4275,11.3969,0,0,0
-0.0334,0.186,1.0669,4.0153,3.3969,13.5191,0,0,0
-0.0254,0.2209,1.0874,0.7634,10.2061,13.3664,0,0,0
-0.0403,0.21,1.0796,0.771,15.3206,10.2519,0,0,0
-0.063,0.1667,1.0828,2.2824,19.0534,9.4962,0,0,0
-0.0718,0.1096,1.1106,5.084,23.0458,13.8397,0,0,0
-0.0425,0.1252,1.1321,9.1145,31.0992,21.1374,0,0,0
-0.0024,0.1995,1.1355,14.6183,40.9084,22.7481,0,0,0
-0.0149,0.2349,1.1357,18.7099,49.6183,18.313,0,0,0
-0.0483,0.2314,1.1028,19.2061,58.5802,15.4122,0,0,0
-0.0754,0.2825,1.0691,18.0534,63.6641,14.3893,0,0,0
-0.0806,0.3464,1.0471,14.3282,66.8015,8.9618,0,0,0
-0.095,0.3865,1.0024,7.7481,67.5573,-0.3282,0,0,0
-0.1101,0.4265,1.0173,3.8092,66.5191,-13.4275,0,0,0
-0.0991,0.4214,1.0483,-1.7481,69.8473,-27.3435,0,0,0
-0.0979,0.3809,1.0559,-7.5496,74.9466,-37.1069,0,0,0
-0.1106,0.4153,1.0632,-10.4885,79.6336,-47.2137,0,0,0
-0.1301,0.4531,1.0442,-11.9695,82.9695,-62.3588,0,0,0
-0.1313,0.4658,1.0435,-13.6565,84.8092,-81.6641,0,0,0
-0.1492,0.4385,0.9941,-16.9008,86.2443,-98.9313,0,0,0
-0.2092,0.3691,0.9146,-26.4504,86.855,-106.9542,0,0,0
-0.3267,0.2898,0.7883,-38.3206,79.5649,-104.2137,0,0,0
-0.429,0.2795,0.6936,-46.2519,62.3893,-101.1145,0,0,0
